population,ID,AgeGroup,Age,Task Name,order-a3p8,display,Trial Number,Response,RT,Event,event_type,Triad No.,Domain,Event Type,RT.sd
children,1,age 5,5.55890411,Block A,BCA,Trial,1,0,1628.9,live for 1000 years?,impossible,22,Biology,Impossible,-0.8929660383504257
children,1,age 5,5.55890411,Block A,BCA,Trial,2,1,4550,eat a brownie for dessert?,ordinary,12,Conventional,Ordinary,0.3637212078295102
children,1,age 5,5.55890411,Block A,BCA,Trial,3,1,1766.1,clean a road?,improbable,8,Physics,Improbable,-0.8339411880625591
children,1,age 5,5.55890411,Block A,BCA,Trial,4,0,4392.3,magically appear into the store?,impossible,16,Moral,Impossible,0.2958770468207889
children,1,age 5,5.55890411,Block A,BCA,Trial,5,0,4766.3,make a house out of gas?,impossible,7,Physics,Impossible,0.456775691191504
children,1,age 5,5.55890411,Block A,BCA,Trial,6,0,3559.9,move a marble with their mind?,impossible,1,Physics,Impossible,-0.06222998947381885
children,1,age 5,5.55890411,Block A,BCA,Trial,7,0,2957.8,be born with 12 toes?,improbable,24,Biology,Improbable,-0.3212595984995075
children,1,age 5,5.55890411,Block A,BCA,Trial,8,0,2627.2,eat an insect?,improbable,19,Conventional,Improbable,-0.4634871167587548
children,1,age 5,5.55890411,Block A,BCA,Trial,9,1,3454.9,play with magic?,impossible,20,Conventional,Impossible,-0.1074020687757576
children,1,age 5,5.55890411,Block A,BCA,Trial,10,1,2461,find a sweater in a closet?,ordinary,13,Other,Ordinary,-0.5349880651395378
children,1,age 5,5.55890411,Block A,BCA,Trial,11,1,2552.8,paint polka dots on a plane?,improbable,4,Physics,Improbable,-0.49549476152127125
children,1,age 5,5.55890411,Block A,BCA,Trial,12,0,1422.1,have the moon as a pet?,impossible,10,Other,Impossible,-0.9819335240612918
children,1,age 5,5.55890411,Block A,BCA,Trial,13,1,2097.9,make their friend smile?,ordinary,15,Moral,Ordinary,-0.6911974174684326
children,1,age 5,5.55890411,Block A,BCA,Trial,14,1,1160.4,ride a horse?,ordinary,11,Other,Ordinary,-1.0945195540928856
children,1,age 5,5.55890411,Block A,BCA,Trial,15,1,7827.7,shake someone's hand with their mouth?,improbable,18,Conventional,Improbable,1.7738214395244112
children,1,age 5,5.55890411,Block A,BCA,Trial,16,1,2148.5,open a window with their hand?,ordinary,3,Physics,Ordinary,-0.6694287773476888
children,1,age 5,5.55890411,Block A,BCA,Trial,17,1,4040.3,stay awake for 5 days?,improbable,23,Biology,Improbable,0.1444430285895276
children,1,age 5,5.55890411,Block A,BCA,Trial,18,0,1614.9,eat a large rock?,impossible,14,Moral,Impossible,-0.8989889822573508
children,1,age 5,5.55890411,Block A,BCA,Trial,19,1,4054.4,count all of the hairs on a dog?,improbable,6,Physics,Improbable,0.1505089935243593
children,1,age 5,5.55890411,Block A,BCA,Trial,20,1,2230.7,unlock a door with a doorkey?,ordinary,5,Physics,Ordinary,-0.6340654924084569
children,1,age 5,5.55890411,Block A,BCA,Trial,21,1,1876.2,eat a whole sandwich for dinner?,ordinary,25,Biology,Ordinary,-0.7865750363373832
children,1,age 5,5.55890411,Block A,BCA,Trial,22,0,4289,walk through a hot fire?,improbable,2,Physics,Improbable,0.2514363249932624
children,1,age 5,5.55890411,Block A,BCA,Trial,23,1,5647.3,not eat for 1 hour?,ordinary,21,Biology,Ordinary,0.8357909470487234
children,1,age 5,5.55890411,Block A,BCA,Trial,24,1,1633.4,turn an onion into onion slices?,ordinary,9,Physics,Ordinary,-0.8910300920946282
children,1,age 5,5.55890411,Block A,BCA,Trial,25,1,1380.1,wear shoes made out of stone?,improbable,17,Conventional,Improbable,-1.0000023557820672
children,1,age 5,5.55890411,Block A,BCA,Trial,26,0,1798.9,know the names of everyone in the world?,impossible,26,Other,Impossible,-0.8198302909091915
children,1,age 5,5.55890411,Block B,BCA,Trial,1,0,4178.2,shake someone's hand with their mind?,impossible,18,Conventional,Impossible,0.2037690260727403
children,1,age 5,5.55890411,Block B,BCA,Trial,2,1,1601.9,be born with 2 feet?,ordinary,24,Biology,Ordinary,-0.9045817158852099
children,1,age 5,5.55890411,Block B,BCA,Trial,4,0,3229,play with a wolf?,improbable,20,Conventional,Improbable,-0.20458657081678586
children,1,age 5,5.55890411,Block B,BCA,Trial,5,0,2199,turn an onion into apple juice?,impossible,9,Physics,Impossible,-0.6477031582548516
children,1,age 5,5.55890411,Block B,BCA,Trial,7,0,6430.9,eat a rainbow for dessert?,impossible,12,Conventional,Impossible,1.172903721724906
children,1,age 5,5.55890411,Block B,BCA,Trial,8,1,3081.5,stay awake for 5 hours?,ordinary,23,Biology,Ordinary,-0.2680425869790331
children,1,age 5,5.55890411,Block B,BCA,Trial,9,0,2387.6,not eat for 100 days?,impossible,21,Biology,Impossible,-0.5665654996229883
children,1,age 5,5.55890411,Block B,BCA,Trial,10,0,1856.7,find a monkey in a closet?,improbable,13,Other,Improbable,-0.7949641367791719
children,1,age 5,5.55890411,Block B,BCA,Trial,11,0,2143.9,eat a whole whale for dinner?,impossible,25,Biology,Impossible,-0.6714077446313927
children,1,age 5,5.55890411,Block B,BCA,Trial,12,1,5141.2,know the names of everyone they ever met?,improbable,26,Other,Improbable,0.6180615248133785
children,1,age 5,5.55890411,Block B,BCA,Trial,13,1,2255.3,make their friend cry?,improbable,15,Moral,Improbable,-0.623482319543431
children,1,age 5,5.55890411,Block B,BCA,Trial,14,0,1462.7,paint polka dots on a cloud?,impossible,4,Physics,Impossible,-0.9644669867312088
children,1,age 5,5.55890411,Block B,BCA,Trial,15,1,1522.5,ride a cow?,improbable,11,Other,Improbable,-0.9387404120430569
children,1,age 5,5.55890411,Block B,BCA,Trial,16,1,1518,count all of the students in a room?,ordinary,6,Physics,Ordinary,-0.9406763582988543
children,1,age 5,5.55890411,Block B,BCA,Trial,17,1,2267.6,move a marble with their breath?,improbable,1,Physics,Improbable,-0.6181907331109183
children,1,age 5,5.55890411,Block B,BCA,Trial,18,1,1767.4,clean a car?,ordinary,8,Physics,Ordinary,-0.8333819146997731
children,1,age 5,5.55890411,Block B,BCA,Trial,19,1,1101.1,have a cat as a pet?,ordinary,10,Other,Ordinary,-1.1200310236415045
children,1,age 5,5.55890411,Block B,BCA,Trial,20,1,6821.6,buy a large rock?,ordinary,14,Moral,Ordinary,1.340986877756025
children,1,age 5,5.55890411,Block B,BCA,Trial,21,0,1757.1,make a house out of grass?,improbable,7,Physics,Improbable,-0.8378130805741538
children,1,age 5,5.55890411,Block B,BCA,Trial,22,1,3150.6,wait in line to go into the store?,ordinary,16,Moral,Ordinary,-0.23831505669556682
children,1,age 5,5.55890411,Block B,BCA,Trial,23,0,1517.9,walk through a brick wall?,impossible,2,Physics,Impossible,-0.9407193793267609
children,1,age 5,5.55890411,Block B,BCA,Trial,24,0,3324.5,unlock a door with a toothpick?,improbable,5,Physics,Improbable,-0.1635014891659749
children,1,age 5,5.55890411,Block B,BCA,Trial,25,1,1186.4,eat a lollipop?,ordinary,19,Conventional,Ordinary,-1.0833340868371675
children,1,age 5,5.55890411,Block B,BCA,Trial,26,0,1937.1,live for 110 years?,improbable,22,Biology,Improbable,-0.7603752303422588
children,1,age 5,5.55890411,Block C,BCA,Trial,1,0,1737.6,eat a planet?,impossible,19,Conventional,Impossible,-0.8462021810159425
children,1,age 5,5.55890411,Block C,BCA,Trial,2,0,1906.3,cut the line to go into the store?,improbable,16,Moral,Improbable,-0.7736257069374942
children,1,age 5,5.55890411,Block C,BCA,Trial,3,1,2009.6,eat a pickle for dessert?,improbable,12,Conventional,Improbable,-0.7291849851099679
children,1,age 5,5.55890411,Block C,BCA,Trial,4,1,1698,play with a toy?,ordinary,20,Conventional,Ordinary,-0.8632385080669593
children,1,age 5,5.55890411,Block C,BCA,Trial,5,1,1830,move a marble with their hand?,ordinary,1,Physics,Ordinary,-0.8064507512302364
children,1,age 5,5.55890411,Block C,BCA,Trial,6,0,1846.3,be born with 2 wings?,impossible,24,Biology,Impossible,-0.7994383236814592
children,1,age 5,5.55890411,Block C,BCA,Trial,7,1,2176.3,paint polka dots on a wall?,ordinary,4,Physics,Ordinary,-0.6574689315896516
children,1,age 5,5.55890411,Block C,BCA,Trial,8,0,2517.4,count all of the sand in the world?,impossible,6,Physics,Impossible,-0.5107242054002107
children,1,age 5,5.55890411,Block C,BCA,Trial,9,0,3142.7,open a window with their feet?,improbable,3,Physics,Improbable,-0.24171371790018892
children,1,age 5,5.55890411,Block C,BCA,Trial,10,0,1587,have a lion as a pet?,improbable,10,Other,Improbable,-0.9109918490432946
children,1,age 5,5.55890411,Block C,BCA,Trial,11,0,1827.4,find a unicorn in a closet?,impossible,13,Other,Impossible,-0.8075692979558081
children,1,age 5,5.55890411,Block C,BCA,Trial,12,1,3536.9,steal a large rock?,improbable,14,Moral,Improbable,-0.07212482589233878
children,1,age 5,5.55890411,Block C,BCA,Trial,14,0,3076.2,know the name of someone they just met?,ordinary,26,Other,Ordinary,-0.27032270145808346
children,1,age 5,5.55890411,Block C,BCA,Trial,15,0,1830.2,stay awake for 5 years?,impossible,23,Biology,Impossible,-0.8063647091744232
children,1,age 5,5.55890411,Block C,BCA,Trial,16,0,4972.7,live for 60 years?,ordinary,22,Biology,Ordinary,0.5455710927907435
children,1,age 5,5.55890411,Block C,BCA,Trial,17,0,934.8,not eat for 10 days?,improbable,21,Biology,Improbable,-1.191574993050194
children,1,age 5,5.55890411,Block C,BCA,Trial,18,1,1102.8,shake someone's hand with their hand?,ordinary,18,Conventional,Ordinary,-1.119299666167092
children,1,age 5,5.55890411,Block C,BCA,Trial,19,0,1998.5,eat a whole turkey for dinner?,improbable,25,Biology,Improbable,-0.7339603192076013
children,1,age 5,5.55890411,Block C,BCA,Trial,20,0,2514.7,clean a cloud?,impossible,8,Physics,Impossible,-0.5118857731536892
children,1,age 5,5.55890411,Block C,BCA,Trial,21,0,2166.1,ride an ogre?,impossible,11,Other,Impossible,-0.6618570764361258
children,1,age 5,5.55890411,Block C,BCA,Trial,22,0,1543.2,make their friend shrink?,impossible,15,Moral,Impossible,-0.9298350592663891
children,1,age 5,5.55890411,Block C,BCA,Trial,23,1,3397,turn an onion into onion juice?,improbable,9,Physics,Improbable,-0.13231124393368385
children,1,age 5,5.55890411,Block C,BCA,Trial,24,1,1534.8,walk through an open door?,ordinary,2,Physics,Ordinary,-0.9334488256105441
children,1,age 5,5.55890411,Block C,BCA,Trial,25,1,1894.1,make a house out of bricks?,ordinary,7,Physics,Ordinary,-0.7788742723421005
children,1,age 5,5.55890411,Block C,BCA,Trial,26,0,1414,unlock a door with their mind?,impossible,5,Physics,Impossible,-0.985418227321727
children,2,age 5,5.701369863,Block A,BCA,Trial,1,0,4387,make a house out of gas?,impossible,7,Physics,Impossible,0.29359693234173856
children,2,age 5,5.701369863,Block A,BCA,Trial,2,1,2538,ride a horse?,ordinary,11,Other,Ordinary,-0.5018618736514494
children,2,age 5,5.701369863,Block A,BCA,Trial,3,0,7133,eat a large rock?,impossible,14,Moral,Impossible,1.4749543586572031
children,2,age 5,5.701369863,Block A,BCA,Trial,4,0,4150,make their friend smile?,ordinary,15,Moral,Ordinary,0.19163709620307684
children,2,age 5,5.701369863,Block A,BCA,Trial,5,0,4269,walk through a hot fire?,improbable,2,Physics,Improbable,0.24283211941194074
children,2,age 5,5.701369863,Block A,BCA,Trial,6,0,3554,turn an onion into onion slices?,ordinary,9,Physics,Ordinary,-0.06476823012030879
children,2,age 5,5.701369863,Block A,BCA,Trial,7,1,4854,find a sweater in a closet?,ordinary,13,Other,Ordinary,0.4945051326655995
children,2,age 5,5.701369863,Block A,BCA,Trial,9,1,4324,unlock a door with a doorkey?,ordinary,5,Physics,Ordinary,0.26649368476057533
children,2,age 5,5.701369863,Block A,BCA,Trial,10,0,3256,magically appear into the store?,impossible,16,Moral,Impossible,-0.1929708932820016
children,2,age 5,5.701369863,Block A,BCA,Trial,11,1,6788,paint polka dots on a plane?,improbable,4,Physics,Improbable,1.3265318123794045
children,2,age 5,5.701369863,Block A,BCA,Trial,12,0,4230,move a marble with their mind?,impossible,1,Physics,Impossible,0.2260539185283635
children,2,age 5,5.701369863,Block A,BCA,Trial,13,0,4524,shake someone's hand with their mouth?,improbable,18,Conventional,Improbable,0.352535740573792
children,2,age 5,5.701369863,Block A,BCA,Trial,14,1,6945,clean a road?,improbable,8,Physics,Improbable,1.3940748261927796
children,2,age 5,5.701369863,Block A,BCA,Trial,15,1,3480,open a window with their hand?,ordinary,3,Physics,Ordinary,-0.09660379077119895
children,2,age 5,5.701369863,Block A,BCA,Trial,16,0,4502,have the moon as a pet?,impossible,10,Other,Impossible,0.34307111443433813
children,2,age 5,5.701369863,Block A,BCA,Trial,17,0,3192,know the names of everyone in the world?,impossible,26,Other,Impossible,-0.22050435114223094
children,2,age 5,5.701369863,Block A,BCA,Trial,18,0,5134,count all of the hairs on a dog?,improbable,6,Physics,Improbable,0.6149640108041028
children,2,age 5,5.701369863,Block A,BCA,Trial,19,0,7224,not eat for 1 hour?,ordinary,21,Biology,Ordinary,1.514103494052217
children,2,age 5,5.701369863,Block A,BCA,Trial,20,0,8722,eat a whole sandwich for dinner?,ordinary,25,Biology,Ordinary,2.1585584920932095
children,2,age 5,5.701369863,Block A,BCA,Trial,22,0,11582,be born with 12 toes?,improbable,24,Biology,Improbable,3.388959890222208
children,2,age 5,5.701369863,Block A,BCA,Trial,23,0,6975,eat an insect?,improbable,19,Conventional,Improbable,1.406981134564762
children,2,age 5,5.701369863,Block A,BCA,Trial,24,0,5413,stay awake for 5 days?,improbable,23,Biology,Improbable,0.73499267866354
children,2,age 5,5.701369863,Block A,BCA,Trial,25,0,9780,play with magic?,impossible,20,Conventional,Impossible,2.6137209673451256
children,2,age 5,5.701369863,Block A,BCA,Trial,26,0,5714,live for 1000 years?,impossible,22,Biology,Impossible,0.8644859726624311
children,2,age 5,5.701369863,Block B,BCA,Trial,1,0,2052,turn an onion into apple juice?,impossible,9,Physics,Impossible,-0.7109440692775658
children,2,age 5,5.701369863,Block B,BCA,Trial,2,0,2501,unlock a door with a toothpick?,improbable,5,Physics,Improbable,-0.5177796539768945
children,2,age 5,5.701369863,Block B,BCA,Trial,3,0,2921,find a monkey in a closet?,improbable,13,Other,Improbable,-0.3370913367691395
children,2,age 5,5.701369863,Block B,BCA,Trial,4,1,10114,know the names of everyone they ever met?,improbable,26,Other,Improbable,2.7574112005531974
children,2,age 5,5.701369863,Block B,BCA,Trial,5,0,2121,have a cat as a pet?,ordinary,10,Other,Ordinary,-0.6812595600220062
children,2,age 5,5.701369863,Block B,BCA,Trial,6,1,1856,eat a lollipop?,ordinary,19,Conventional,Ordinary,-0.7952652839745182
children,2,age 5,5.701369863,Block B,BCA,Trial,7,1,5238,count all of the students in a room?,ordinary,6,Physics,Ordinary,0.6597058798269755
children,2,age 5,5.701369863,Block B,BCA,Trial,8,0,4600,paint polka dots on a cloud?,impossible,4,Physics,Impossible,0.38523172178281434
children,2,age 5,5.701369863,Block B,BCA,Trial,9,1,2893,be born with 2 feet?,ordinary,24,Biology,Ordinary,-0.34913722458298985
children,2,age 5,5.701369863,Block B,BCA,Trial,10,0,2621,shake someone's hand with their mind?,impossible,18,Conventional,Impossible,-0.4661544204889645
children,2,age 5,5.701369863,Block B,BCA,Trial,11,1,2294,clean a car?,ordinary,8,Physics,Ordinary,-0.6068331817435737
children,2,age 5,5.701369863,Block B,BCA,Trial,12,0,2850,eat a rainbow for dessert?,impossible,12,Conventional,Impossible,-0.3676362665828314
children,2,age 5,5.701369863,Block B,BCA,Trial,13,0,3509,make a house out of grass?,improbable,7,Physics,Improbable,-0.08412769267828253
children,2,age 5,5.701369863,Block B,BCA,Trial,14,1,10615,live for 110 years?,improbable,22,Biology,Improbable,2.972946550365305
children,2,age 5,5.701369863,Block B,BCA,Trial,15,0,2926,play with a wolf?,improbable,20,Conventional,Improbable,-0.3349402853738091
children,2,age 5,5.701369863,Block B,BCA,Trial,16,0,9386,make their friend cry?,improbable,15,Moral,Improbable,2.444218117393089
children,2,age 5,5.701369863,Block B,BCA,Trial,17,1,2234,wait in line to go into the store?,ordinary,16,Moral,Ordinary,-0.6326457984875387
children,2,age 5,5.701369863,Block B,BCA,Trial,18,0,6564,move a marble with their breath?,improbable,1,Physics,Improbable,1.230164709868602
children,2,age 5,5.701369863,Block B,BCA,Trial,19,0,2320,wear shoes made out of light?,impossible,17,Conventional,Impossible,-0.5956477144878556
children,2,age 5,5.701369863,Block B,BCA,Trial,21,1,4104,walk through a brick wall?,impossible,2,Physics,Impossible,0.171847423366037
children,2,age 5,5.701369863,Block B,BCA,Trial,22,1,5820,ride a cow?,improbable,11,Other,Improbable,0.9100882622434359
children,2,age 5,5.701369863,Block B,BCA,Trial,23,0,2501,not eat for 100 days?,impossible,21,Biology,Impossible,-0.5177796539768945
children,2,age 5,5.701369863,Block B,BCA,Trial,24,0,3072,buy a large rock?,ordinary,14,Moral,Ordinary,-0.2721295846301609
children,2,age 5,5.701369863,Block B,BCA,Trial,25,0,2196,eat a whole whale for dinner?,impossible,25,Biology,Impossible,-0.6489937890920499
children,2,age 5,5.701369863,Block B,BCA,Trial,26,0,2562,open a window with their breath?,impossible,3,Physics,Impossible,-0.4915368269538634
children,2,age 5,5.701369863,Block C,BCA,Trial,1,0,2145,unlock a door with their mind?,impossible,5,Physics,Impossible,-0.6709345133244201
children,2,age 5,5.701369863,Block C,BCA,Trial,2,1,5035,eat a whole turkey for dinner?,improbable,25,Biology,Improbable,0.5723731931765605
children,2,age 5,5.701369863,Block C,BCA,Trial,3,0,3558,turn an onion into onion juice?,improbable,9,Physics,Improbable,-0.06304738900404445
children,2,age 5,5.701369863,Block C,BCA,Trial,4,1,2863,play with a toy?,ordinary,20,Conventional,Ordinary,-0.3620435329549723
children,2,age 5,5.701369863,Block C,BCA,Trial,5,0,2998,stay awake for 5 years?,impossible,23,Biology,Impossible,-0.30396514528105106
children,2,age 5,5.701369863,Block C,BCA,Trial,6,0,4450,count all of the sand in the world?,impossible,6,Physics,Impossible,0.32070017992290184
children,2,age 5,5.701369863,Block C,BCA,Trial,7,1,5144,know the name of someone they just met?,ordinary,26,Other,Ordinary,0.6192661135947636
children,2,age 5,5.701369863,Block C,BCA,Trial,8,1,3495,shake someone's hand with their hand?,ordinary,18,Conventional,Ordinary,-0.0901506365852077
children,2,age 5,5.701369863,Block C,BCA,Trial,9,1,3375,move a marble with their hand?,ordinary,1,Physics,Ordinary,-0.1417758700731377
children,2,age 5,5.701369863,Block C,BCA,Trial,10,0,2949,open a window with their feet?,improbable,3,Physics,Improbable,-0.32504544895528914
children,2,age 5,5.701369863,Block C,BCA,Trial,12,1,3237,walk through an open door?,ordinary,2,Physics,Ordinary,-0.2011448885842572
children,2,age 5,5.701369863,Block C,BCA,Trial,13,0,2433,make their friend shrink?,impossible,15,Moral,Impossible,-0.5470339529533881
children,2,age 5,5.701369863,Block C,BCA,Trial,14,0,2246,clean a cloud?,impossible,8,Physics,Impossible,-0.6274832751387457
children,2,age 5,5.701369863,Block C,BCA,Trial,15,0,1846,find a unicorn in a closet?,impossible,13,Other,Impossible,-0.799567386765179
children,2,age 5,5.701369863,Block C,BCA,Trial,16,0,8772,wear shoes made out of leather?,ordinary,17,Conventional,Ordinary,2.1800690060465135
children,2,age 5,5.701369863,Block C,BCA,Trial,17,0,5270,eat a pickle for dessert?,improbable,12,Conventional,Improbable,0.6734726087570901
children,2,age 5,5.701369863,Block C,BCA,Trial,18,0,6761,be born with 2 wings?,impossible,24,Biology,Impossible,1.3149161348446203
children,2,age 5,5.701369863,Block C,BCA,Trial,19,0,3195,eat a planet?,impossible,19,Conventional,Impossible,-0.21921372030503267
children,2,age 5,5.701369863,Block C,BCA,Trial,20,1,3140,paint polka dots on a wall?,ordinary,4,Physics,Ordinary,-0.24287528565366726
children,2,age 5,5.701369863,Block C,BCA,Trial,21,1,5607,live for 60 years?,ordinary,22,Biology,Ordinary,0.8184534728023601
children,2,age 5,5.701369863,Block C,BCA,Trial,22,1,3041,make a house out of bricks?,ordinary,7,Physics,Ordinary,-0.2854661032812095
children,2,age 5,5.701369863,Block C,BCA,Trial,23,0,3838,cut the line to go into the store?,improbable,16,Moral,Improbable,0.057411489134458864
children,2,age 5,5.701369863,Block C,BCA,Trial,24,0,4813,have a lion as a pet?,improbable,10,Other,Improbable,0.47686651122389007
children,2,age 5,5.701369863,Block C,BCA,Trial,25,0,8130,not eat for 10 days?,improbable,21,Biology,Improbable,1.9038740068860882
children,2,age 5,5.701369863,Block C,BCA,Trial,26,0,5347,steal a large rock?,improbable,14,Moral,Improbable,0.7065988002451785
children,3,age 9,9.430136986,Block A,ABC,Trial,1,1,2948.2,eat a brownie for dessert?,ordinary,12,Conventional,Ordinary,0.2944494241398784
children,3,age 9,9.430136986,Block A,ABC,Trial,2,0,2084.8,wear shoes made out of stone?,improbable,17,Conventional,Improbable,-0.1250572817296383
children,3,age 9,9.430136986,Block A,ABC,Trial,3,1,11754.7,paint polka dots on a plane?,improbable,4,Physics,Improbable,4.573330366043863
children,3,age 9,9.430136986,Block A,ABC,Trial,4,0,10976,stay awake for 5 days?,improbable,23,Biology,Improbable,4.194977491523834
children,3,age 9,9.430136986,Block A,ABC,Trial,5,0,1025.9,make a house out of gas?,impossible,7,Physics,Impossible,-0.6395530552358132
children,3,age 9,9.430136986,Block A,ABC,Trial,6,0,2954.1,live for 1000 years?,impossible,22,Biology,Impossible,0.2973161018844118
children,3,age 9,9.430136986,Block A,ABC,Trial,7,0,1293.2,move a marble with their mind?,impossible,1,Physics,Impossible,-0.509677977080935
children,3,age 9,9.430136986,Block A,ABC,Trial,8,1,14154.9,shake someone's hand with their mouth?,improbable,18,Conventional,Improbable,5.739533742726761
children,3,age 9,9.430136986,Block A,ABC,Trial,9,1,3282.9,unlock a door with a doorkey?,ordinary,5,Physics,Ordinary,0.45707265144417236
children,3,age 9,9.430136986,Block A,ABC,Trial,11,1,3115.2,clean a road?,improbable,8,Physics,Improbable,0.3755909806376886
children,3,age 9,9.430136986,Block A,ABC,Trial,12,1,1341.9,eat a whole sandwich for dinner?,ordinary,25,Biology,Ordinary,-0.48601573874893883
children,3,age 9,9.430136986,Block A,ABC,Trial,13,0,2904.3,know the names of everyone in the world?,impossible,26,Other,Impossible,0.2731193982102147
children,3,age 9,9.430136986,Block A,ABC,Trial,14,1,2311.3,eat an insect?,improbable,19,Conventional,Improbable,-0.015006008994584345
children,3,age 9,9.430136986,Block A,ABC,Trial,15,0,1108.6,have the moon as a pet?,impossible,10,Other,Impossible,-0.5993709790539635
children,3,age 9,9.430136986,Block A,ABC,Trial,16,0,10297,be born with 12 toes?,improbable,24,Biology,Improbable,3.865066612110582
children,3,age 9,9.430136986,Block A,ABC,Trial,17,1,7203.3,play with magic?,impossible,20,Conventional,Impossible,2.361907131049053
children,3,age 9,9.430136986,Block A,ABC,Trial,18,1,1799.8,open a window with their hand?,ordinary,3,Physics,Ordinary,-0.2635323931181168
children,3,age 9,9.430136986,Block A,ABC,Trial,19,0,900.6,magically appear into the store?,impossible,16,Moral,Impossible,-0.7004335164883618
children,3,age 9,9.430136986,Block A,ABC,Trial,20,0,773.1,eat a large rock?,impossible,14,Moral,Impossible,-0.7623829084253128
children,3,age 9,9.430136986,Block A,ABC,Trial,21,1,1241.9,ride a horse?,ordinary,11,Other,Ordinary,-0.5346034971308611
children,3,age 9,9.430136986,Block A,ABC,Trial,22,0,10773.3,count all of the hairs on a dog?,improbable,6,Physics,Improbable,4.096490105283677
children,3,age 9,9.430136986,Block A,ABC,Trial,23,1,4491.4,walk through a hot fire?,improbable,2,Physics,Improbable,1.0442557114897026
children,3,age 9,9.430136986,Block A,ABC,Trial,24,1,838.4,find a sweater in a closet?,ordinary,13,Other,Ordinary,-0.7306551022019174
children,3,age 9,9.430136986,Block A,ABC,Trial,25,1,967,make their friend smile?,ordinary,15,Moral,Ordinary,-0.6681712449227655
children,3,age 9,9.430136986,Block A,ABC,Trial,26,1,3681.3,not eat for 1 hour?,ordinary,21,Biology,Ordinary,0.6506462808377507
children,3,age 9,9.430136986,Block B,ABC,Trial,1,0,4275.4,ride a cow?,improbable,11,Other,Improbable,0.9393061533847507
children,3,age 9,9.430136986,Block B,ABC,Trial,2,1,3149.2,make their friend cry?,improbable,15,Moral,Improbable,0.39211081848754215
children,3,age 9,9.430136986,Block B,ABC,Trial,3,0,986.4,not eat for 100 days?,impossible,21,Biology,Impossible,-0.6587452197966724
children,3,age 9,9.430136986,Block B,ABC,Trial,4,0,1446.1,make a house out of grass?,improbable,7,Physics,Improbable,-0.43538729451497593
children,3,age 9,9.430136986,Block B,ABC,Trial,5,1,2183.5,live for 110 years?,improbable,22,Biology,Improbable,-0.07710116420668109
children,3,age 9,9.430136986,Block B,ABC,Trial,6,1,1276.6,have a cat as a pet?,ordinary,10,Other,Ordinary,-0.5177435449723342
children,3,age 9,9.430136986,Block B,ABC,Trial,7,1,1151,stay awake for 5 hours?,ordinary,23,Biology,Ordinary,-0.5787697695000285
children,3,age 9,9.430136986,Block B,ABC,Trial,8,0,924.3,wear shoes made out of light?,impossible,17,Conventional,Impossible,-0.6889182177518463
children,3,age 9,9.430136986,Block B,ABC,Trial,9,0,1841.9,eat a whole whale for dinner?,impossible,25,Biology,Impossible,-0.2430769468393275
children,3,age 9,9.430136986,Block B,ABC,Trial,10,1,3001.6,be born with 2 feet?,ordinary,24,Biology,Ordinary,0.32039528711582493
children,3,age 9,9.430136986,Block B,ABC,Trial,11,1,2462.6,move a marble with their breath?,improbable,1,Physics,Improbable,0.05850726943726391
children,3,age 9,9.430136986,Block B,ABC,Trial,12,0,1823.7,buy a large rock?,ordinary,14,Moral,Ordinary,-0.2519199188648374
children,3,age 9,9.430136986,Block B,ABC,Trial,13,1,2847,count all of the students in a room?,ordinary,6,Physics,Ordinary,0.24527861265737314
children,3,age 9,9.430136986,Block B,ABC,Trial,14,0,1061.9,open a window with their breath?,impossible,3,Physics,Impossible,-0.6220614622183211
children,3,age 9,9.430136986,Block B,ABC,Trial,15,1,2665,eat a lollipop?,ordinary,19,Conventional,Ordinary,0.15684889240227462
children,3,age 9,9.430136986,Block B,ABC,Trial,16,1,1969.7,clean a car?,ordinary,8,Physics,Ordinary,-0.18098179162723088
children,3,age 9,9.430136986,Block B,ABC,Trial,17,0,840.9,turn an onion into apple juice?,impossible,9,Physics,Impossible,-0.7294404082423693
children,3,age 9,9.430136986,Block B,ABC,Trial,18,0,5732.3,play with a wolf?,improbable,20,Conventional,Improbable,1.6471812052509764
children,3,age 9,9.430136986,Block B,ABC,Trial,19,0,6402.5,unlock a door with a toothpick?,improbable,5,Physics,Improbable,1.9728163619266192
children,3,age 9,9.430136986,Block B,ABC,Trial,20,0,2204.6,find a monkey in a closet?,improbable,13,Other,Improbable,-0.06684914718809554
children,3,age 9,9.430136986,Block B,ABC,Trial,21,0,3213.6,walk through a brick wall?,impossible,2,Physics,Impossible,0.42340133488550014
children,3,age 9,9.430136986,Block B,ABC,Trial,22,0,2975.8,shake someone's hand with their mind?,impossible,18,Conventional,Impossible,0.3078596454532891
children,3,age 9,9.430136986,Block B,ABC,Trial,23,0,13877.2,know the names of everyone they ever met?,improbable,26,Other,Improbable,5.604605537700163
children,3,age 9,9.430136986,Block B,ABC,Trial,24,1,912.6,wait in line to go into the store?,ordinary,16,Moral,Ordinary,-0.6946029854825312
children,3,age 9,9.430136986,Block B,ABC,Trial,25,0,1095.6,paint polka dots on a cloud?,impossible,4,Physics,Impossible,-0.6056873876436135
children,3,age 9,9.430136986,Block B,ABC,Trial,26,0,796.8,eat a rainbow for dessert?,impossible,12,Conventional,Impossible,-0.7508676096887972
children,3,age 9,9.430136986,Block C,ABC,Trial,1,1,4399.5,turn an onion into onion juice?,improbable,9,Physics,Improbable,0.9996035615367164
children,3,age 9,9.430136986,Block C,ABC,Trial,2,1,1863,shake someone's hand with their hand?,ordinary,18,Conventional,Ordinary,-0.23282492982074196
children,3,age 9,9.430136986,Block C,ABC,Trial,3,1,3849.8,steal a large rock?,improbable,14,Moral,Improbable,0.7325166537112897
children,3,age 9,9.430136986,Block C,ABC,Trial,4,0,1332.3,make their friend shrink?,impossible,15,Moral,Impossible,-0.49068016355360344
children,3,age 9,9.430136986,Block C,ABC,Trial,5,0,1320.8,stay awake for 5 years?,impossible,23,Biology,Impossible,-0.4962677557675245
children,3,age 9,9.430136986,Block C,ABC,Trial,6,1,1842.8,know the name of someone they just met?,ordinary,26,Other,Ordinary,-0.24263965701389026
children,3,age 9,9.430136986,Block C,ABC,Trial,7,0,1654.8,not eat for 10 days?,improbable,21,Biology,Improbable,-0.33398464277190415
children,3,age 9,9.430136986,Block C,ABC,Trial,8,0,1886.7,open a window with their feet?,improbable,3,Physics,Improbable,-0.22130963108422635
children,3,age 9,9.430136986,Block C,ABC,Trial,9,0,3394.6,find a unicorn in a closet?,impossible,13,Other,Impossible,0.5113451775567794
children,3,age 9,9.430136986,Block C,ABC,Trial,10,1,2856.9,eat a pickle for dessert?,improbable,12,Conventional,Improbable,0.2500888007371835
children,3,age 9,9.430136986,Block C,ABC,Trial,11,0,918.9,unlock a door with their mind?,impossible,5,Physics,Impossible,-0.69154195670447
children,3,age 9,9.430136986,Block C,ABC,Trial,12,0,2830.6,eat a planet?,impossible,19,Conventional,Impossible,0.23731022028273785
children,3,age 9,9.430136986,Block C,ABC,Trial,13,0,1424.1,ride an ogre?,impossible,11,Other,Impossible,-0.4460766013589988
children,3,age 9,9.430136986,Block C,ABC,Trial,14,1,3050.4,cut the line to go into the store?,improbable,16,Moral,Improbable,0.3441061132062031
children,3,age 9,9.430136986,Block C,ABC,Trial,15,0,1545.7,count all of the sand in the world?,impossible,6,Physics,Impossible,-0.3869938871665813
children,3,age 9,9.430136986,Block C,ABC,Trial,16,1,3127.4,make a house out of bricks?,ordinary,7,Physics,Ordinary,0.3815186871602832
children,3,age 9,9.430136986,Block C,ABC,Trial,17,1,1280.6,live for 60 years?,ordinary,22,Biology,Ordinary,-0.5158000346370573
children,3,age 9,9.430136986,Block C,ABC,Trial,19,0,2357.7,eat a whole turkey for dinner?,improbable,25,Biology,Improbable,0.007538710894627409
children,3,age 9,9.430136986,Block C,ABC,Trial,20,0,2746,clean a cloud?,impossible,8,Physics,Impossible,0.19620497669163164
children,3,age 9,9.430136986,Block C,ABC,Trial,21,1,1606.4,move a marble with their hand?,ordinary,1,Physics,Ordinary,-0.35750111782875443
children,3,age 9,9.430136986,Block C,ABC,Trial,22,0,1341.8,have a lion as a pet?,improbable,10,Other,Improbable,-0.48606432650732084
children,3,age 9,9.430136986,Block C,ABC,Trial,23,1,1941.1,paint polka dots on a wall?,ordinary,4,Physics,Ordinary,-0.1948778905244607
children,3,age 9,9.430136986,Block C,ABC,Trial,24,1,2659.1,walk through an open door?,ordinary,2,Physics,Ordinary,0.15398221465774117
children,3,age 9,9.430136986,Block C,ABC,Trial,25,1,1428.4,wear shoes made out of leather?,ordinary,17,Conventional,Ordinary,-0.4439873277485761
children,3,age 9,9.430136986,Block C,ABC,Trial,26,1,826.4,play with a toy?,ordinary,20,Conventional,Ordinary,-0.7364856332077481
children,4,age 9,9.276712329,Block A,BCA,Trial,1,0,940.3,magically appear into the store?,impossible,16,Moral,Impossible,-0.6811441764107388
children,4,age 9,9.276712329,Block A,BCA,Trial,2,0,2265.7,count all of the hairs on a dog?,improbable,6,Physics,Improbable,-0.03716202681674108
children,4,age 9,9.276712329,Block A,BCA,Trial,3,1,2911.7,eat a whole sandwich for dinner?,ordinary,25,Biology,Ordinary,0.27671489233047675
children,4,age 9,9.276712329,Block A,BCA,Trial,4,0,6033.3,have the moon as a pet?,impossible,10,Other,Impossible,1.7934303579805624
children,4,age 9,9.276712329,Block A,BCA,Trial,5,0,2742.7,wear shoes made out of stone?,improbable,17,Conventional,Improbable,0.19460158066502814
children,4,age 9,9.276712329,Block A,BCA,Trial,6,0,1587.9,play with magic?,impossible,20,Conventional,Impossible,-0.36648985312941007
children,4,age 9,9.276712329,Block A,BCA,Trial,7,1,1396,turn an onion into onion slices?,ordinary,9,Physics,Ordinary,-0.45972976146431893
children,4,age 9,9.276712329,Block A,BCA,Trial,8,0,2715.3,stay awake for 5 days?,improbable,23,Biology,Improbable,0.18128853486838162
children,4,age 9,9.276712329,Block A,BCA,Trial,9,0,3170.5,eat a large rock?,impossible,14,Moral,Impossible,0.4024600110228917
children,4,age 9,9.276712329,Block A,BCA,Trial,10,0,4651.1,be born with 12 toes?,improbable,24,Biology,Improbable,1.121850361625633
children,4,age 9,9.276712329,Block A,BCA,Trial,11,0,1264.1,make a house out of gas?,impossible,7,Physics,Impossible,-0.5238170147700745
children,4,age 9,9.276712329,Block A,BCA,Trial,12,1,1156.7,make their friend smile?,ordinary,15,Moral,Ordinary,-0.5760002672722588
children,4,age 9,9.276712329,Block A,BCA,Trial,13,1,749.4,open a window with their hand?,ordinary,3,Physics,Ordinary,-0.7738982071618282
children,4,age 9,9.276712329,Block A,BCA,Trial,14,0,639.1,know the names of everyone in the world?,impossible,26,Other,Impossible,-0.8274905046570886
children,4,age 9,9.276712329,Block A,BCA,Trial,15,0,4498.7,paint polka dots on a plane?,improbable,4,Physics,Improbable,1.0478026178515831
children,4,age 9,9.276712329,Block A,BCA,Trial,16,1,1282.8,clean a road?,improbable,8,Physics,Improbable,-0.514731103952655
children,4,age 9,9.276712329,Block A,BCA,Trial,17,1,1651.2,ride a horse?,ordinary,11,Other,Ordinary,-0.3357338020736533
children,4,age 9,9.276712329,Block A,BCA,Trial,18,0,475.4,live for 1000 years?,impossible,22,Biology,Impossible,-0.9070286651282953
children,4,age 9,9.276712329,Block A,BCA,Trial,19,1,620.9,find a sweater in a closet?,ordinary,13,Other,Ordinary,-0.8363334766825984
children,4,age 9,9.276712329,Block A,BCA,Trial,20,1,522.2,unlock a door with a doorkey?,ordinary,5,Physics,Ordinary,-0.8842895942055556
children,4,age 9,9.276712329,Block A,BCA,Trial,21,1,1411.3,eat an insect?,improbable,19,Conventional,Improbable,-0.45229583443188487
children,4,age 9,9.276712329,Block A,BCA,Trial,22,0,927.4,move a marble with their mind?,impossible,1,Physics,Impossible,-0.6874119972420066
children,4,age 9,9.276712329,Block A,BCA,Trial,23,1,1065.4,not eat for 1 hour?,ordinary,21,Biology,Ordinary,-0.6203608906749539
children,4,age 9,9.276712329,Block A,BCA,Trial,24,1,4017.3,eat a brownie for dessert?,ordinary,12,Conventional,Ordinary,0.8139011490010095
children,4,age 9,9.276712329,Block A,BCA,Trial,25,0,5291.9,shake someone's hand with their mouth?,improbable,18,Conventional,Improbable,1.4332007173369905
children,4,age 9,9.276712329,Block A,BCA,Trial,26,0,2978.7,walk through a hot fire?,improbable,2,Physics,Improbable,0.3092686904463647
children,4,age 9,9.276712329,Block B,BCA,Trial,1,1,1226.7,stay awake for 5 hours?,ordinary,23,Biology,Ordinary,-0.5419888364049134
children,4,age 9,9.276712329,Block B,BCA,Trial,2,0,2193.2,open a window with their breath?,impossible,3,Physics,Impossible,-0.07238815164363471
children,4,age 9,9.276712329,Block B,BCA,Trial,3,0,699.4,eat a rainbow for dessert?,impossible,12,Conventional,Impossible,-0.7981920863527894
children,4,age 9,9.276712329,Block B,BCA,Trial,4,1,3669.8,buy a large rock?,ordinary,14,Moral,Ordinary,0.6450586886238296
children,4,age 9,9.276712329,Block B,BCA,Trial,5,1,941.9,count all of the students in a room?,ordinary,6,Physics,Ordinary,-0.6803667722766279
children,4,age 9,9.276712329,Block B,BCA,Trial,6,0,2026.2,make a house out of grass?,improbable,7,Physics,Improbable,-0.1535297081414448
children,4,age 9,9.276712329,Block B,BCA,Trial,7,1,4733.4,move a marble with their breath?,improbable,1,Physics,Improbable,1.1618380867739546
children,4,age 9,9.276712329,Block B,BCA,Trial,8,0,1088,turn an onion into apple juice?,impossible,9,Physics,Impossible,-0.6093800572806395
children,4,age 9,9.276712329,Block B,BCA,Trial,9,0,2618,shake someone's hand with their mind?,impossible,18,Conventional,Impossible,0.13401264596277115
children,4,age 9,9.276712329,Block B,BCA,Trial,10,1,744.5,have a cat as a pet?,ordinary,10,Other,Ordinary,-0.7762790073225425
children,4,age 9,9.276712329,Block B,BCA,Trial,11,1,2639.6,wait in line to go into the store?,ordinary,16,Moral,Ordinary,0.14450760177326633
children,4,age 9,9.276712329,Block B,BCA,Trial,12,0,1303.1,walk through a brick wall?,impossible,2,Physics,Impossible,-0.5048677890011247
children,4,age 9,9.276712329,Block B,BCA,Trial,13,0,1530.5,find a monkey in a closet?,improbable,13,Other,Improbable,-0.3943792264406335
children,4,age 9,9.276712329,Block B,BCA,Trial,14,0,1850.5,paint polka dots on a cloud?,impossible,4,Physics,Impossible,-0.23889839961848222
children,4,age 9,9.276712329,Block B,BCA,Trial,15,0,2107.5,wear shoes made out of light?,impossible,17,Conventional,Impossible,-0.11402786057694202
children,4,age 9,9.276712329,Block B,BCA,Trial,16,0,1833.4,live for 110 years?,improbable,22,Biology,Improbable,-0.2472069063017909
children,4,age 9,9.276712329,Block B,BCA,Trial,17,1,900,clean a car?,ordinary,8,Physics,Ordinary,-0.7007250430386534
children,4,age 9,9.276712329,Block B,BCA,Trial,18,0,1057.5,eat a whole whale for dinner?,impossible,25,Biology,Impossible,-0.6241993235871258
children,4,age 9,9.276712329,Block B,BCA,Trial,19,1,1307.7,make their friend cry?,improbable,15,Moral,Improbable,-0.5026327521155562
children,4,age 9,9.276712329,Block B,BCA,Trial,20,1,1755.9,ride a cow?,improbable,11,Other,Improbable,-0.28486241904778065
children,4,age 9,9.276712329,Block B,BCA,Trial,21,1,1179.9,be born with 2 feet?,ordinary,24,Biology,Ordinary,-0.5647279073276529
children,4,age 9,9.276712329,Block B,BCA,Trial,22,1,942.7,eat a lollipop?,ordinary,19,Conventional,Ordinary,-0.6799780702095726
children,4,age 9,9.276712329,Block B,BCA,Trial,23,0,1095.1,play with a wolf?,improbable,20,Conventional,Improbable,-0.605930326435523
children,4,age 9,9.276712329,Block B,BCA,Trial,24,1,4884.1,know the names of everyone they ever met?,improbable,26,Other,Improbable,1.2350598386555118
children,4,age 9,9.276712329,Block B,BCA,Trial,25,0,4301.7,not eat for 100 days?,impossible,21,Biology,Impossible,0.9520847338391962
children,4,age 9,9.276712329,Block B,BCA,Trial,26,1,1496.2,unlock a door with a toothpick?,improbable,5,Physics,Improbable,-0.4110448275656328
children,4,age 9,9.276712329,Block C,BCA,Trial,1,0,3064.2,have a lion as a pet?,improbable,10,Other,Improbable,0.3508112238629082
children,4,age 9,9.276712329,Block C,BCA,Trial,2,1,2206.1,open a window with their feet?,improbable,3,Physics,Improbable,-0.0661203308123667
children,4,age 9,9.276712329,Block C,BCA,Trial,3,0,789.3,unlock a door with their mind?,impossible,5,Physics,Impossible,-0.7545116915674414
children,4,age 9,9.276712329,Block C,BCA,Trial,4,0,1994.4,eat a planet?,impossible,19,Conventional,Impossible,-0.16898061530689604
children,4,age 9,9.276712329,Block C,BCA,Trial,5,1,2244.3,paint polka dots on a wall?,ordinary,4,Physics,Ordinary,-0.047559807110472266
children,4,age 9,9.276712329,Block C,BCA,Trial,6,0,3506.2,count all of the sand in the world?,impossible,6,Physics,Impossible,0.5655691159110047
children,4,age 9,9.276712329,Block C,BCA,Trial,7,1,895.5,wear shoes made out of leather?,ordinary,17,Conventional,Ordinary,-0.7029114921658399
children,4,age 9,9.276712329,Block C,BCA,Trial,8,0,2502.5,make their friend shrink?,impossible,15,Moral,Impossible,0.07789378503165094
children,4,age 9,9.276712329,Block C,BCA,Trial,9,1,840.8,make a house out of bricks?,ordinary,7,Physics,Ordinary,-0.7294889960007513
children,4,age 9,9.276712329,Block C,BCA,Trial,10,0,1518.2,clean a cloud?,impossible,8,Physics,Impossible,-0.4003555207216099
children,4,age 9,9.276712329,Block C,BCA,Trial,11,0,1202.1,be born with 2 wings?,impossible,24,Biology,Impossible,-0.5539414249668663
children,4,age 9,9.276712329,Block C,BCA,Trial,12,1,1188.2,eat a pickle for dessert?,improbable,12,Conventional,Improbable,-0.5606951233819534
children,4,age 9,9.276712329,Block C,BCA,Trial,13,1,1637.4,know the name of someone they just met?,ordinary,26,Other,Ordinary,-0.34243891273035854
children,4,age 9,9.276712329,Block C,BCA,Trial,14,1,918.9,not eat for 10 days?,improbable,21,Biology,Improbable,-0.69154195670447
children,4,age 9,9.276712329,Block C,BCA,Trial,15,0,1481,ride an ogre?,impossible,11,Other,Impossible,-0.418430166839685
children,4,age 9,9.276712329,Block C,BCA,Trial,16,0,1477.9,turn an onion into onion juice?,improbable,9,Physics,Improbable,-0.41993638734952454
children,4,age 9,9.276712329,Block C,BCA,Trial,17,0,1253.8,eat a whole turkey for dinner?,improbable,25,Biology,Improbable,-0.5288215538834125
children,4,age 9,9.276712329,Block C,BCA,Trial,18,1,1805.5,move a marble with their hand?,ordinary,1,Physics,Ordinary,-0.26076289089034727
children,4,age 9,9.276712329,Block C,BCA,Trial,19,1,1178.5,play with a toy?,ordinary,20,Conventional,Ordinary,-0.5654081359449998
children,4,age 9,9.276712329,Block C,BCA,Trial,20,0,1886.9,stay awake for 5 years?,impossible,23,Biology,Impossible,-0.2212124555674625
children,4,age 9,9.276712329,Block C,BCA,Trial,21,1,1783.1,walk through an open door?,ordinary,2,Physics,Ordinary,-0.2716465487678979
children,4,age 9,9.276712329,Block C,BCA,Trial,22,0,866.2,find a unicorn in a closet?,impossible,13,Other,Impossible,-0.7171477053717431
children,4,age 9,9.276712329,Block C,BCA,Trial,23,1,1818.3,steal a large rock?,improbable,14,Moral,Improbable,-0.25454365781746124
children,4,age 9,9.276712329,Block C,BCA,Trial,24,1,952.2,shake someone's hand with their hand?,ordinary,18,Conventional,Ordinary,-0.6753622331632899
children,4,age 9,9.276712329,Block C,BCA,Trial,25,1,1104.9,live for 60 years?,ordinary,22,Biology,Ordinary,-0.6011687261140946
children,4,age 9,9.276712329,Block C,BCA,Trial,26,1,5626.3,cut the line to go into the store?,improbable,16,Moral,Improbable,1.5956781813661387
children,5,age 7,7.030136986,Block A,BCA,Trial,1,0,1142.3,eat an insect?,improbable,19,Conventional,Improbable,-0.7607104543402842
children,5,age 7,7.030136986,Block A,BCA,Trial,2,0,1117.4,have the moon as a pet?,impossible,10,Other,Impossible,-0.7737348264397457
children,5,age 7,7.030136986,Block A,BCA,Trial,3,0,1286.3,make a house out of gas?,impossible,7,Physics,Impossible,-0.6853887843674945
children,5,age 7,7.030136986,Block A,BCA,Trial,4,0,1892.7,magically appear into the store?,impossible,16,Moral,Impossible,-0.36820086303763583
children,5,age 7,7.030136986,Block A,BCA,Trial,5,1,1961.7,find a sweater in a closet?,ordinary,13,Other,Ordinary,-0.33210922950900745
children,5,age 7,7.030136986,Block A,BCA,Trial,6,1,1668.7,ride a horse?,ordinary,11,Other,Ordinary,-0.4853679052175308
children,5,age 7,7.030136986,Block A,BCA,Trial,7,0,2478,be born with 12 toes?,improbable,24,Biology,Improbable,-0.062049658627401263
children,5,age 7,7.030136986,Block A,BCA,Trial,8,0,1758.9,eat a large rock?,impossible,14,Moral,Impossible,-0.43818724805401954
children,5,age 7,7.030136986,Block A,BCA,Trial,9,0,2329.6,walk through a hot fire?,improbable,2,Physics,Improbable,-0.13967282407158174
children,5,age 7,7.030136986,Block A,BCA,Trial,10,0,1819.4,move a marble with their mind?,impossible,1,Physics,Impossible,-0.4065416853223961
children,5,age 7,7.030136986,Block A,BCA,Trial,11,1,2304,open a window with their hand?,ordinary,3,Physics,Ordinary,-0.15306334317785542
children,5,age 7,7.030136986,Block A,BCA,Trial,12,1,2271.5,paint polka dots on a plane?,improbable,4,Physics,Improbable,-0.17006302563699197
children,5,age 7,7.030136986,Block A,BCA,Trial,13,1,2019.5,make their friend smile?,ordinary,15,Moral,Ordinary,-0.30187594808937385
children,5,age 7,7.030136986,Block A,BCA,Trial,14,0,1129.2,live for 1000 years?,impossible,22,Biology,Impossible,-0.7675626340391976
children,5,age 7,7.030136986,Block A,BCA,Trial,15,1,4118.3,clean a road?,improbable,8,Physics,Improbable,0.7959373917640353
children,5,age 7,7.030136986,Block A,BCA,Trial,16,0,1382,count all of the hairs on a dog?,improbable,6,Physics,Improbable,-0.6353312578647446
children,5,age 7,7.030136986,Block A,BCA,Trial,17,0,1925.4,play with magic?,impossible,20,Conventional,Impossible,-0.3510965671479815
children,5,age 7,7.030136986,Block A,BCA,Trial,18,0,3165.2,know the names of everyone in the world?,impossible,26,Other,Impossible,0.2974020886316337
children,5,age 7,7.030136986,Block A,BCA,Trial,19,1,1602.1,turn an onion into onion slices?,ordinary,9,Physics,Ordinary,-0.5202041775799461
children,5,age 7,7.030136986,Block A,BCA,Trial,20,0,2845.1,shake someone's hand with their mouth?,improbable,18,Conventional,Improbable,0.1299682930879534
children,5,age 7,7.030136986,Block A,BCA,Trial,21,0,3943.9,wear shoes made out of stone?,improbable,17,Conventional,Improbable,0.7047144803525456
children,5,age 7,7.030136986,Block A,BCA,Trial,22,1,1692.5,eat a brownie for dessert?,ordinary,12,Conventional,Ordinary,-0.472918906985917
children,5,age 7,7.030136986,Block A,BCA,Trial,23,1,1708,unlock a door with a doorkey?,ordinary,5,Physics,Ordinary,-0.4648113661207903
children,5,age 7,7.030136986,Block A,BCA,Trial,24,1,6914.9,not eat for 1 hour?,ordinary,21,Biology,Ordinary,2.2587469906939206
children,5,age 7,7.030136986,Block A,BCA,Trial,25,1,4877.9,eat a whole sandwich for dinner?,ordinary,25,Biology,Ordinary,1.1932592008705005
children,5,age 7,7.030136986,Block A,BCA,Trial,26,0,1985.9,stay awake for 5 days?,improbable,23,Biology,Improbable,-0.31945100441635804
children,5,age 7,7.030136986,Block B,BCA,Trial,1,1,1876.5,walk through a brick wall?,impossible,2,Physics,Impossible,-0.3766745509095747
children,5,age 7,7.030136986,Block B,BCA,Trial,2,1,3480,wait in line to go into the store?,ordinary,16,Moral,Ordinary,0.46206362826659336
children,5,age 7,7.030136986,Block B,BCA,Trial,3,0,3725.5,shake someone's hand with their mind?,impossible,18,Conventional,Impossible,0.5904766142271479
children,5,age 7,7.030136986,Block B,BCA,Trial,4,1,2660.8,count all of the students in a room?,ordinary,6,Physics,Ordinary,0.03356701686583458
children,5,age 7,7.030136986,Block B,BCA,Trial,5,0,1803.4,open a window with their breath?,impossible,3,Physics,Impossible,-0.41491075976381714
children,5,age 7,7.030136986,Block B,BCA,Trial,6,0,2973.3,paint polka dots on a cloud?,impossible,4,Physics,Impossible,0.1970255020498399
children,5,age 7,7.030136986,Block B,BCA,Trial,7,1,1610.2,eat a lollipop?,ordinary,19,Conventional,Ordinary,-0.5159673336439766
children,5,age 7,7.030136986,Block B,BCA,Trial,8,0,6034.4,move a marble with their breath?,improbable,1,Physics,Improbable,1.7981863628394672
children,5,age 7,7.030136986,Block B,BCA,Trial,9,0,2940.3,eat a whole whale for dinner?,impossible,25,Biology,Impossible,0.17976428601440894
children,5,age 7,7.030136986,Block B,BCA,Trial,10,0,4617.9,know the names of everyone they ever met?,improbable,26,Other,Improbable,1.0572617411974081
children,5,age 7,7.030136986,Block B,BCA,Trial,11,0,3413.4,unlock a door with a toothpick?,improbable,5,Physics,Improbable,0.4272273559041782
children,5,age 7,7.030136986,Block B,BCA,Trial,12,0,2808.5,wear shoes made out of light?,impossible,17,Conventional,Impossible,0.11082403530320276
children,5,age 7,7.030136986,Block B,BCA,Trial,13,1,3325.6,make their friend cry?,improbable,15,Moral,Improbable,0.38130205990688
children,5,age 7,7.030136986,Block B,BCA,Trial,14,1,5396.4,stay awake for 5 hours?,ordinary,23,Biology,Ordinary,1.4644695194878021
children,5,age 7,7.030136986,Block B,BCA,Trial,15,0,1667.3,find a monkey in a closet?,improbable,13,Other,Improbable,-0.4861001992311552
children,5,age 7,7.030136986,Block B,BCA,Trial,16,1,3024.6,be born with 2 feet?,ordinary,24,Biology,Ordinary,0.22385884697764605
children,5,age 7,7.030136986,Block B,BCA,Trial,17,1,1279.8,clean a car?,ordinary,8,Physics,Ordinary,-0.6887887208593219
children,5,age 7,7.030136986,Block B,BCA,Trial,18,1,1663.5,have a cat as a pet?,ordinary,10,Other,Ordinary,-0.4880878544109927
children,5,age 7,7.030136986,Block B,BCA,Trial,19,0,959,not eat for 100 days?,impossible,21,Biology,Impossible,-0.8565886634098143
children,5,age 7,7.030136986,Block B,BCA,Trial,20,0,1496.7,turn an onion into apple juice?,impossible,9,Physics,Impossible,-0.5753354554628074
children,5,age 7,7.030136986,Block B,BCA,Trial,21,0,1801.9,buy a large rock?,ordinary,14,Moral,Ordinary,-0.4156953604927004
children,5,age 7,7.030136986,Block B,BCA,Trial,22,0,1819.9,make a house out of grass?,improbable,7,Physics,Improbable,-0.40628015174610166
children,5,age 7,7.030136986,Block B,BCA,Trial,23,0,1784.6,eat a rainbow for dessert?,impossible,12,Conventional,Impossible,-0.42474442223248704
children,5,age 7,7.030136986,Block B,BCA,Trial,24,0,1071,live for 110 years?,improbable,22,Biology,Improbable,-0.7980051423198667
children,5,age 7,7.030136986,Block B,BCA,Trial,25,1,6211.8,play with a wolf?,improbable,20,Conventional,Improbable,1.8909784757087238
children,5,age 7,7.030136986,Block B,BCA,Trial,26,1,1762.1,ride a cow?,improbable,11,Other,Improbable,-0.4365134331657354
children,5,age 7,7.030136986,Block C,BCA,Trial,1,0,1427.4,stay awake for 5 years?,impossible,23,Biology,Impossible,-0.6115840091372123
children,5,age 7,7.030136986,Block C,BCA,Trial,2,0,1402.3,eat a planet?,impossible,19,Conventional,Impossible,-0.6247129946671918
children,5,age 7,7.030136986,Block C,BCA,Trial,3,0,2657.1,know the name of someone they just met?,ordinary,26,Other,Ordinary,0.031631668401255815
children,5,age 7,7.030136986,Block C,BCA,Trial,4,0,3278.8,eat a pickle for dessert?,improbable,12,Conventional,Improbable,0.3568225171657235
children,5,age 7,7.030136986,Block C,BCA,Trial,5,0,5551.1,open a window with their feet?,improbable,3,Physics,Improbable,1.5453880079932925
children,5,age 7,7.030136986,Block C,BCA,Trial,6,0,1771.5,be born with 2 wings?,impossible,24,Biology,Impossible,-0.4315966019314005
children,5,age 7,7.030136986,Block C,BCA,Trial,7,0,3268.3,cut the line to go into the store?,improbable,16,Moral,Improbable,0.35133031206354093
children,5,age 7,7.030136986,Block C,BCA,Trial,8,0,1473.7,eat a whole turkey for dinner?,improbable,25,Biology,Improbable,-0.5873659999723502
children,5,age 7,7.030136986,Block C,BCA,Trial,9,0,2218.2,live for 60 years?,ordinary,22,Biology,Ordinary,-0.197942504869976
children,5,age 7,7.030136986,Block C,BCA,Trial,10,0,3524.7,steal a large rock?,improbable,14,Moral,Improbable,0.4854447299873134
children,5,age 7,7.030136986,Block C,BCA,Trial,11,0,2300.1,unlock a door with their mind?,impossible,5,Physics,Impossible,-0.15510330507295186
children,5,age 7,7.030136986,Block C,BCA,Trial,12,1,1430,play with a toy?,ordinary,20,Conventional,Ordinary,-0.6102240345404815
children,5,age 7,7.030136986,Block C,BCA,Trial,13,0,1411.3,not eat for 10 days?,improbable,21,Biology,Improbable,-0.6200053902938923
children,5,age 7,7.030136986,Block C,BCA,Trial,14,1,5916.2,ride an ogre?,impossible,11,Other,Impossible,1.7363598254034693
children,5,age 7,7.030136986,Block C,BCA,Trial,15,1,1516.1,make a house out of bricks?,ordinary,7,Physics,Ordinary,-0.5651879527025844
children,5,age 7,7.030136986,Block C,BCA,Trial,16,1,3191.3,turn an onion into onion juice?,improbable,9,Physics,Improbable,0.311054141314202
children,5,age 7,7.030136986,Block C,BCA,Trial,17,0,2244,count all of the sand in the world?,impossible,6,Physics,Impossible,-0.18444737233318445
children,5,age 7,7.030136986,Block C,BCA,Trial,18,0,5153.1,walk through an open door?,ordinary,2,Physics,Ordinary,1.3372072812629432
children,5,age 7,7.030136986,Block C,BCA,Trial,19,0,1985.2,clean a cloud?,impossible,8,Physics,Impossible,-0.31981715142317024
children,5,age 7,7.030136986,Block C,BCA,Trial,20,0,1447.4,have a lion as a pet?,improbable,10,Other,Improbable,-0.601122666085436
children,5,age 7,7.030136986,Block C,BCA,Trial,21,0,1423.7,find a unicorn in a closet?,impossible,13,Other,Impossible,-0.613519357601791
children,5,age 7,7.030136986,Block C,BCA,Trial,22,1,2892.4,wear shoes made out of leather?,ordinary,17,Conventional,Ordinary,0.15470936940540456
children,5,age 7,7.030136986,Block C,BCA,Trial,23,1,2566.9,shake someone's hand with their hand?,ordinary,18,Conventional,Ordinary,-0.015548988762255384
children,5,age 7,7.030136986,Block C,BCA,Trial,24,0,1559.4,make their friend shrink?,impossible,15,Moral,Impossible,-0.5425391449954885
children,5,age 7,7.030136986,Block C,BCA,Trial,25,1,3060.7,paint polka dots on a wall?,ordinary,4,Physics,Ordinary,0.24274157118610232
children,5,age 7,7.030136986,Block C,BCA,Trial,26,1,1722.8,move a marble with their hand?,ordinary,1,Physics,Ordinary,-0.45706997226247587
children,6,age 5,5.073972603,Block A,ABC,Trial,1,0,2141,paint polka dots on a plane?,improbable,4,Physics,Improbable,-0.6726553544406845
children,6,age 5,5.073972603,Block A,ABC,Trial,2,0,2125,make a house out of gas?,impossible,7,Physics,Impossible,-0.6795387189057418
children,6,age 5,5.073972603,Block A,ABC,Trial,3,0,5080,open a window with their hand?,ordinary,3,Physics,Ordinary,0.5917326557345343
children,6,age 5,5.073972603,Block A,ABC,Trial,4,1,2104,eat a large rock?,impossible,14,Moral,Impossible,-0.6885731347661296
children,6,age 5,5.073972603,Block A,ABC,Trial,5,1,3633,eat a brownie for dessert?,ordinary,12,Conventional,Ordinary,-0.030781618074088204
children,6,age 5,5.073972603,Block A,ABC,Trial,6,1,4554,clean a road?,improbable,8,Physics,Improbable,0.3654420489457745
children,6,age 5,5.073972603,Block A,ABC,Trial,7,1,2108,ride a horse?,ordinary,11,Other,Ordinary,-0.6868522936498652
children,6,age 5,5.073972603,Block A,ABC,Trial,8,0,2320,eat a whole sandwich for dinner?,ordinary,25,Biology,Ordinary,-0.5956477144878556
children,6,age 5,5.073972603,Block A,ABC,Trial,9,0,986,wear shoes made out of stone?,improbable,17,Conventional,Improbable,-1.1695482267620105
children,6,age 5,5.073972603,Block A,ABC,Trial,10,0,1061,have the moon as a pet?,impossible,10,Other,Impossible,-1.1372824558320545
children,6,age 5,5.073972603,Block A,ABC,Trial,11,0,3104,not eat for 1 hour?,ordinary,21,Biology,Ordinary,-0.25836285570004625
children,6,age 5,5.073972603,Block A,ABC,Trial,12,1,4423,make their friend smile?,ordinary,15,Moral,Ordinary,0.3090845023881176
children,6,age 5,5.073972603,Block A,ABC,Trial,13,1,2764,be born with 12 toes?,improbable,24,Biology,Improbable,-0.40463435058251457
children,6,age 5,5.073972603,Block A,ABC,Trial,14,0,1501,walk through a hot fire?,improbable,2,Physics,Improbable,-0.9479899330429777
children,6,age 5,5.073972603,Block A,ABC,Trial,15,1,2479,unlock a door with a doorkey?,ordinary,5,Physics,Ordinary,-0.5272442801163483
children,6,age 5,5.073972603,Block A,ABC,Trial,16,0,1436,stay awake for 5 days?,improbable,23,Biology,Improbable,-0.9759536011822731
children,6,age 5,5.073972603,Block A,ABC,Trial,17,0,2904,play with magic?,impossible,20,Conventional,Impossible,-0.3444049115132629
children,6,age 5,5.073972603,Block A,ABC,Trial,18,0,2146,move a marble with their mind?,impossible,1,Physics,Impossible,-0.670504303045354
children,6,age 5,5.073972603,Block A,ABC,Trial,19,0,2199,count all of the hairs on a dog?,improbable,6,Physics,Improbable,-0.6477031582548516
children,6,age 5,5.073972603,Block A,ABC,Trial,20,0,3948,live for 1000 years?,impossible,22,Biology,Impossible,0.10473461983172802
children,6,age 5,5.073972603,Block A,ABC,Trial,21,0,1633,magically appear into the store?,impossible,16,Moral,Impossible,-0.8912021762062547
children,6,age 5,5.073972603,Block A,ABC,Trial,22,0,2336,eat an insect?,improbable,19,Conventional,Improbable,-0.5887643500227983
children,6,age 5,5.073972603,Block A,ABC,Trial,23,0,2278,turn an onion into onion slices?,ordinary,9,Physics,Ordinary,-0.613716546208631
children,6,age 5,5.073972603,Block A,ABC,Trial,24,0,1193,know the names of everyone in the world?,impossible,26,Other,Impossible,-1.0804946989953315
children,6,age 5,5.073972603,Block A,ABC,Trial,25,1,1142,find a sweater in a closet?,ordinary,13,Other,Ordinary,-1.1024354232277016
children,6,age 5,5.073972603,Block A,ABC,Trial,26,0,1087,shake someone's hand with their mouth?,improbable,18,Conventional,Improbable,-1.1260969885763361
children,6,age 5,5.073972603,Block B,ABC,Trial,1,0,2952,count all of the students in a room?,ordinary,6,Physics,Ordinary,-0.3237548181180909
children,6,age 5,5.073972603,Block B,ABC,Trial,2,0,1458,make their friend cry?,improbable,15,Moral,Improbable,-0.9664889750428193
children,6,age 5,5.073972603,Block B,ABC,Trial,3,0,1687,stay awake for 5 hours?,ordinary,23,Biology,Ordinary,-0.8679708211366862
children,6,age 5,5.073972603,Block B,ABC,Trial,4,1,3757,know the names of everyone they ever met?,improbable,26,Other,Improbable,0.02256445653010612
children,6,age 5,5.073972603,Block B,ABC,Trial,5,0,1177,not eat for 100 days?,impossible,21,Biology,Impossible,-1.0873780634603887
children,6,age 5,5.073972603,Block B,ABC,Trial,6,1,2955,have a cat as a pet?,ordinary,10,Other,Ordinary,-0.32246418728089266
children,6,age 5,5.073972603,Block B,ABC,Trial,7,0,3886,eat a rainbow for dessert?,impossible,12,Conventional,Impossible,0.07806158252963086
children,6,age 5,5.073972603,Block B,ABC,Trial,8,1,3251,wait in line to go into the store?,ordinary,16,Moral,Ordinary,-0.19512194467733202
children,6,age 5,5.073972603,Block B,ABC,Trial,9,0,2903,shake someone's hand with their mind?,impossible,18,Conventional,Impossible,-0.344835121792329
children,6,age 5,5.073972603,Block B,ABC,Trial,10,0,1795,buy a large rock?,ordinary,14,Moral,Ordinary,-0.8215081109975493
children,6,age 5,5.073972603,Block B,ABC,Trial,11,1,4059,be born with 2 feet?,ordinary,24,Biology,Ordinary,0.15248796080806326
children,6,age 5,5.073972603,Block B,ABC,Trial,12,1,1761,ride a cow?,improbable,11,Other,Improbable,-0.8361352604857961
children,6,age 5,5.073972603,Block B,ABC,Trial,13,0,1356,play with a wolf?,improbable,20,Conventional,Improbable,-1.01037042350756
children,6,age 5,5.073972603,Block B,ABC,Trial,14,0,1257,eat a whole whale for dinner?,impossible,25,Biology,Impossible,-1.0529612411351021
children,6,age 5,5.073972603,Block B,ABC,Trial,15,1,2033,clean a car?,ordinary,8,Physics,Ordinary,-0.7191180645798214
children,6,age 5,5.073972603,Block B,ABC,Trial,16,0,2059,live for 110 years?,improbable,22,Biology,Improbable,-0.7079325973241033
children,6,age 5,5.073972603,Block B,ABC,Trial,17,0,1816,make a house out of grass?,improbable,7,Physics,Improbable,-0.8124736951371615
children,6,age 5,5.073972603,Block B,ABC,Trial,18,0,1120,turn an onion into apple juice?,impossible,9,Physics,Impossible,-1.1119000493671554
children,6,age 5,5.073972603,Block B,ABC,Trial,19,1,2749,eat a lollipop?,ordinary,19,Conventional,Ordinary,-0.4110875047685058
children,6,age 5,5.073972603,Block B,ABC,Trial,20,0,2373,paint polka dots on a cloud?,impossible,4,Physics,Impossible,-0.5728465696973531
children,6,age 5,5.073972603,Block B,ABC,Trial,21,0,3216,move a marble with their breath?,improbable,1,Physics,Improbable,-0.21017930444464494
children,6,age 5,5.073972603,Block B,ABC,Trial,22,0,1268,walk through a brick wall?,impossible,2,Physics,Impossible,-1.0482289280653752
children,6,age 5,5.073972603,Block B,ABC,Trial,23,0,1139,open a window with their breath?,impossible,3,Physics,Impossible,-1.1037260540648999
children,6,age 5,5.073972603,Block B,ABC,Trial,24,0,1935,wear shoes made out of light?,impossible,17,Conventional,Impossible,-0.7612786719282976
children,6,age 5,5.073972603,Block B,ABC,Trial,25,0,926,find a monkey in a closet?,improbable,13,Other,Improbable,-1.1953608435059757
children,6,age 5,5.073972603,Block B,ABC,Trial,26,0,1797,unlock a door with a toothpick?,improbable,5,Physics,Improbable,-0.8206476904394171
children,6,age 5,5.073972603,Block C,ABC,Trial,1,0,2056,stay awake for 5 years?,impossible,23,Biology,Impossible,-0.7092232281613016
children,6,age 5,5.073972603,Block C,ABC,Trial,2,1,3853,eat a pickle for dessert?,improbable,12,Conventional,Improbable,0.06386464332045011
children,6,age 5,5.073972603,Block C,ABC,Trial,3,0,2402,count all of the sand in the world?,impossible,6,Physics,Impossible,-0.5603704716044368
children,6,age 5,5.073972603,Block C,ABC,Trial,4,1,2206,paint polka dots on a wall?,ordinary,4,Physics,Ordinary,-0.6446916863013891
children,6,age 5,5.073972603,Block C,ABC,Trial,5,0,1422,have a lion as a pet?,improbable,10,Other,Improbable,-0.9819765450891983
children,6,age 5,5.073972603,Block C,ABC,Trial,6,0,1382,clean a cloud?,impossible,8,Physics,Impossible,-0.9991849562518417
children,6,age 5,5.073972603,Block C,ABC,Trial,7,1,3204,wear shoes made out of leather?,ordinary,17,Conventional,Ordinary,-0.21534182779343794
children,6,age 5,5.073972603,Block C,ABC,Trial,8,1,2621,play with a toy?,ordinary,20,Conventional,Ordinary,-0.4661544204889645
children,6,age 5,5.073972603,Block C,ABC,Trial,9,0,1125,eat a planet?,impossible,19,Conventional,Impossible,-1.1097489979718251
children,6,age 5,5.073972603,Block C,ABC,Trial,10,0,2721,unlock a door with their mind?,impossible,5,Physics,Impossible,-0.42313339258235616
children,6,age 5,5.073972603,Block C,ABC,Trial,11,0,2180,be born with 2 wings?,impossible,24,Biology,Impossible,-0.6558771535571072
children,6,age 5,5.073972603,Block C,ABC,Trial,12,1,2158,know the name of someone they just met?,ordinary,26,Other,Ordinary,-0.665341779696561
children,6,age 5,5.073972603,Block C,ABC,Trial,13,1,2058,walk through an open door?,ordinary,2,Physics,Ordinary,-0.7083628076031694
children,6,age 5,5.073972603,Block C,ABC,Trial,14,0,2299,steal a large rock?,improbable,14,Moral,Improbable,-0.6046821303482433
children,6,age 5,5.073972603,Block C,ABC,Trial,15,0,4744,turn an onion into onion juice?,improbable,9,Physics,Improbable,0.4471820019683303
children,6,age 5,5.073972603,Block C,ABC,Trial,16,1,3173,move a marble with their hand?,ordinary,1,Physics,Ordinary,-0.2286783464444865
children,6,age 5,5.073972603,Block C,ABC,Trial,17,0,1470,open a window with their feet?,improbable,3,Physics,Improbable,-0.9613264516940263
children,6,age 5,5.073972603,Block C,ABC,Trial,18,0,1880,eat a whole turkey for dinner?,improbable,25,Biology,Improbable,-0.7849402372769322
children,6,age 5,5.073972603,Block C,ABC,Trial,19,0,2106,cut the line to go into the store?,improbable,16,Moral,Improbable,-0.6877127142079974
children,6,age 5,5.073972603,Block C,ABC,Trial,20,0,1021,find a unicorn in a closet?,impossible,13,Other,Impossible,-1.1544908669946976
children,6,age 5,5.073972603,Block C,ABC,Trial,21,0,3363,make their friend shrink?,impossible,15,Moral,Impossible,-0.14693839342193069
children,6,age 5,5.073972603,Block C,ABC,Trial,22,1,1650,make a house out of bricks?,ordinary,7,Physics,Ordinary,-0.8838886014621313
children,6,age 5,5.073972603,Block C,ABC,Trial,23,0,4729,ride an ogre?,impossible,11,Other,Impossible,0.44072884778233906
children,6,age 5,5.073972603,Block C,ABC,Trial,24,0,5453,not eat for 10 days?,improbable,21,Biology,Improbable,0.7522010898261834
children,6,age 5,5.073972603,Block C,ABC,Trial,25,0,2850,live for 60 years?,ordinary,22,Biology,Ordinary,-0.3676362665828314
children,6,age 5,5.073972603,Block C,ABC,Trial,26,1,2107,shake someone's hand with their hand?,ordinary,18,Conventional,Ordinary,-0.6872825039289313
children,7,age 9,9.857534247,Block A,ABC,Trial,1,0,2754.7,live for 1000 years?,impossible,22,Biology,Impossible,0.2004321116708588
children,7,age 9,9.857534247,Block A,ABC,Trial,2,1,3144.2,eat an insect?,improbable,19,Conventional,Improbable,0.389681430568446
children,7,age 9,9.857534247,Block A,ABC,Trial,3,1,3088.7,eat a whole sandwich for dinner?,ordinary,25,Biology,Ordinary,0.36271522466647915
children,7,age 9,9.857534247,Block A,ABC,Trial,4,0,8089.1,know the names of everyone in the world?,impossible,26,Other,Impossible,2.79229749479612
children,7,age 9,9.857534247,Block A,ABC,Trial,5,1,2731.2,stay awake for 5 days?,improbable,23,Biology,Improbable,0.18901398845110706
children,7,age 9,9.857534247,Block A,ABC,Trial,6,0,2449.9,play with magic?,impossible,20,Conventional,Impossible,0.05233662412275987
children,7,age 9,9.857534247,Block A,ABC,Trial,7,1,3122.9,open a window with their hand?,ordinary,3,Physics,Ordinary,0.37933223803309674
children,7,age 9,9.857534247,Block A,ABC,Trial,9,1,1597.4,paint polka dots on a plane?,improbable,4,Physics,Improbable,-0.36187401608312747
children,7,age 9,9.857534247,Block A,ABC,Trial,10,1,3315.5,not eat for 1 hour?,ordinary,21,Biology,Ordinary,0.47291226067667896
children,7,age 9,9.857534247,Block A,ABC,Trial,11,1,2528.3,unlock a door with a doorkey?,ordinary,5,Physics,Ordinary,0.09042942669418697
children,7,age 9,9.857534247,Block A,ABC,Trial,12,0,1843.6,magically appear into the store?,impossible,16,Moral,Impossible,-0.2422509549468349
children,7,age 9,9.857534247,Block A,ABC,Trial,13,0,3537.2,be born with 12 toes?,improbable,24,Biology,Improbable,0.5806313210094005
children,7,age 9,9.857534247,Block A,ABC,Trial,14,1,922,make their friend smile?,ordinary,15,Moral,Ordinary,-0.6900357361946304
children,7,age 9,9.857534247,Block A,ABC,Trial,15,1,7535.6,clean a road?,improbable,8,Physics,Improbable,2.5233642521521804
children,7,age 9,9.857534247,Block A,ABC,Trial,16,0,3091,wear shoes made out of stone?,improbable,17,Conventional,Improbable,0.36383274310926345
children,7,age 9,9.857534247,Block A,ABC,Trial,17,1,1229.1,find a sweater in a closet?,ordinary,13,Other,Ordinary,-0.5408227302037473
children,7,age 9,9.857534247,Block A,ABC,Trial,18,0,2645.1,walk through a hot fire?,improbable,2,Physics,Improbable,0.14717992848427205
children,7,age 9,9.857534247,Block A,ABC,Trial,19,0,5177.1,shake someone's hand with their mouth?,improbable,18,Conventional,Improbable,1.377421970714544
children,7,age 9,9.857534247,Block A,ABC,Trial,20,0,2687.5,count all of the hairs on a dog?,improbable,6,Physics,Improbable,0.16778113803820713
children,7,age 9,9.857534247,Block A,ABC,Trial,21,0,3438.6,make a house out of gas?,impossible,7,Physics,Impossible,0.5327237912448253
children,7,age 9,9.857534247,Block A,ABC,Trial,22,1,1654.6,turn an onion into onion slices?,ordinary,9,Physics,Ordinary,-0.334081818288668
children,7,age 9,9.857534247,Block A,ABC,Trial,23,1,1647.3,ride a horse?,ordinary,11,Other,Ordinary,-0.3376287246505483
children,7,age 9,9.857534247,Block A,ABC,Trial,24,0,1842.6,move a marble with their mind?,impossible,1,Physics,Impossible,-0.24273683253065415
children,7,age 9,9.857534247,Block A,ABC,Trial,25,1,2429,eat a brownie for dessert?,ordinary,12,Conventional,Ordinary,0.04218178262093807
children,7,age 9,9.857534247,Block A,ABC,Trial,26,0,2060.9,have the moon as a pet?,impossible,10,Other,Impossible,-0.13666975598291775
children,7,age 9,9.857534247,Block B,ABC,Trial,1,0,2384.5,eat a rainbow for dessert?,impossible,12,Conventional,Impossible,0.020560230140982665
children,7,age 9,9.857534247,Block B,ABC,Trial,2,1,1709,buy a large rock?,ordinary,14,Moral,Ordinary,-0.30765007772890224
children,7,age 9,9.857534247,Block B,ABC,Trial,3,1,2246.2,clean a car?,ordinary,8,Physics,Ordinary,-0.04663663970121592
children,7,age 9,9.857534247,Block B,ABC,Trial,4,1,2681.8,play with a wolf?,improbable,20,Conventional,Improbable,0.16501163581043765
children,7,age 9,9.857534247,Block B,ABC,Trial,5,1,1973.2,live for 110 years?,improbable,22,Biology,Improbable,-0.1792812200838636
children,7,age 9,9.857534247,Block B,ABC,Trial,6,1,1165.3,have a cat as a pet?,ordinary,10,Other,Ordinary,-0.5718217200514136
children,7,age 9,9.857534247,Block B,ABC,Trial,7,0,1720.1,wear shoes made out of light?,impossible,17,Conventional,Impossible,-0.30225683654850893
children,7,age 9,9.857534247,Block B,ABC,Trial,8,0,1897.7,not eat for 100 days?,impossible,21,Biology,Impossible,-0.2159649776622149
children,7,age 9,9.857534247,Block B,ABC,Trial,9,0,1700.6,open a window with their breath?,impossible,3,Physics,Impossible,-0.31173144943298375
children,7,age 9,9.857534247,Block B,ABC,Trial,10,1,1541.6,find a monkey in a closet?,improbable,13,Other,Improbable,-0.38898598526024014
children,7,age 9,9.857534247,Block B,ABC,Trial,11,1,1795.8,eat a lollipop?,ordinary,19,Conventional,Ordinary,-0.2654759034533937
children,7,age 9,9.857534247,Block B,ABC,Trial,12,0,3413.9,turn an onion into apple juice?,impossible,9,Physics,Impossible,0.5207226149244906
children,7,age 9,9.857534247,Block B,ABC,Trial,13,1,3692.9,unlock a door with a toothpick?,improbable,5,Physics,Improbable,0.6562824608100536
children,7,age 9,9.857534247,Block B,ABC,Trial,14,1,1495.8,count all of the students in a room?,ordinary,6,Physics,Ordinary,-0.41123917859916054
children,7,age 9,9.857534247,Block B,ABC,Trial,15,0,2967.7,move a marble with their breath?,improbable,1,Physics,Improbable,0.3039240370243532
children,7,age 9,9.857534247,Block B,ABC,Trial,16,0,2027.5,make a house out of grass?,improbable,7,Physics,Improbable,-0.15289806728247982
children,7,age 9,9.857534247,Block B,ABC,Trial,17,1,2799.1,ride a cow?,improbable,11,Other,Improbable,0.22200507639243233
children,7,age 9,9.857534247,Block B,ABC,Trial,18,1,1417,make their friend cry?,improbable,15,Moral,Improbable,-0.44952633220411525
children,7,age 9,9.857534247,Block B,ABC,Trial,19,0,4072.2,walk through a brick wall?,impossible,2,Physics,Impossible,0.8405758283526846
children,7,age 9,9.857534247,Block B,ABC,Trial,20,0,1135.1,shake someone's hand with their mind?,impossible,18,Conventional,Impossible,-0.5864952230827541
children,7,age 9,9.857534247,Block B,ABC,Trial,21,0,1133.1,paint polka dots on a cloud?,impossible,4,Physics,Impossible,-0.5874669782503926
children,7,age 9,9.857534247,Block B,ABC,Trial,22,1,2346.2,wait in line to go into the store?,ordinary,16,Moral,Ordinary,0.0019511186807063487
children,7,age 9,9.857534247,Block B,ABC,Trial,23,1,1758.7,be born with 2 feet?,ordinary,24,Biology,Ordinary,-0.28350196181308684
children,7,age 9,9.857534247,Block B,ABC,Trial,24,1,4861.3,stay awake for 5 hours?,ordinary,23,Biology,Ordinary,1.2239818297444334
children,7,age 9,9.857534247,Block B,ABC,Trial,26,0,1265.8,eat a whole whale for dinner?,impossible,25,Biology,Impossible,-0.5229910228775817
children,7,age 9,9.857534247,Block C,ABC,Trial,2,1,2057.6,play with a toy?,ordinary,20,Conventional,Ordinary,-0.13827315200952126
children,7,age 9,9.857534247,Block C,ABC,Trial,3,0,805.7,unlock a door with their mind?,impossible,5,Physics,Impossible,-0.746543299192806
children,7,age 9,9.857534247,Block C,ABC,Trial,4,1,1028.5,wear shoes made out of leather?,ordinary,17,Conventional,Ordinary,-0.6382897735178833
children,7,age 9,9.857534247,Block C,ABC,Trial,5,1,851.5,eat a whole turkey for dinner?,improbable,25,Biology,Improbable,-0.7242901058538856
children,7,age 9,9.857534247,Block C,ABC,Trial,6,1,3839.6,know the name of someone they just met?,ordinary,26,Other,Ordinary,0.7275607023563335
children,7,age 9,9.857534247,Block C,ABC,Trial,7,1,2337.8,steal a large rock?,improbable,14,Moral,Improbable,-0.0021302530233749447
children,7,age 9,9.857534247,Block C,ABC,Trial,8,1,2142.6,make a house out of bricks?,ordinary,7,Physics,Ordinary,-0.09697355738488735
children,7,age 9,9.857534247,Block C,ABC,Trial,9,1,1467.2,move a marble with their hand?,ordinary,1,Physics,Ordinary,-0.42513527749639024
children,7,age 9,9.857534247,Block C,ABC,Trial,10,1,2375.5,eat a pickle for dessert?,improbable,12,Conventional,Improbable,0.01618733188660966
children,7,age 9,9.857534247,Block C,ABC,Trial,11,1,1542.7,paint polka dots on a wall?,ordinary,4,Physics,Ordinary,-0.38845151991803895
children,7,age 9,9.857534247,Block C,ABC,Trial,12,0,1092.2,find a unicorn in a closet?,impossible,13,Other,Impossible,-0.6073393714285987
children,7,age 9,9.857534247,Block C,ABC,Trial,13,1,1351.8,walk through an open door?,ordinary,2,Physics,Ordinary,-0.4812055506691286
children,7,age 9,9.857534247,Block C,ABC,Trial,14,0,1535.7,be born with 2 wings?,impossible,24,Biology,Impossible,-0.3918526630047735
children,7,age 9,9.857534247,Block C,ABC,Trial,15,1,2228.7,open a window with their feet?,improbable,3,Physics,Improbable,-0.05513949741805231
children,7,age 9,9.857534247,Block C,ABC,Trial,16,1,1684.4,turn an onion into onion juice?,improbable,9,Physics,Improbable,-0.3196026662908551
children,7,age 9,9.857534247,Block C,ABC,Trial,17,0,1122.1,eat a planet?,impossible,19,Conventional,Impossible,-0.592811631672404
children,7,age 9,9.857534247,Block C,ABC,Trial,18,0,1582,clean a cloud?,impossible,8,Physics,Impossible,-0.36935653087394354
children,7,age 9,9.857534247,Block C,ABC,Trial,19,0,1015.4,count all of the sand in the world?,impossible,6,Physics,Impossible,-0.6446547698659151
children,7,age 9,9.857534247,Block C,ABC,Trial,20,0,740.5,make their friend shrink?,impossible,15,Moral,Impossible,-0.7782225176578194
children,7,age 9,9.857534247,Block C,ABC,Trial,21,0,4430.5,stay awake for 5 years?,impossible,23,Biology,Impossible,1.0146657666351122
children,7,age 9,9.857534247,Block C,ABC,Trial,23,1,1765.9,shake someone's hand with their hand?,ordinary,18,Conventional,Ordinary,-0.2800036432095884
children,7,age 9,9.857534247,Block C,ABC,Trial,24,0,6425.1,cut the line to go into the store?,improbable,16,Moral,Improbable,1.983797195320934
children,7,age 9,9.857534247,Block C,ABC,Trial,25,1,4695.4,have a lion as a pet?,improbable,10,Other,Improbable,1.1433747385888242
children,7,age 9,9.857534247,Block C,ABC,Trial,26,1,1076.6,live for 60 years?,ordinary,22,Biology,Ordinary,-0.6149190617361787
children,8,age 5,5.61369863,Block A,ABC,Trial,1,1,10707,live for 1000 years?,impossible,22,Biology,Impossible,3.012525896039385
children,8,age 5,5.61369863,Block A,ABC,Trial,3,1,6708,eat a whole sandwich for dinner?,ordinary,25,Biology,Ordinary,1.2921149900541178
children,8,age 5,5.61369863,Block A,ABC,Trial,4,0,5918,shake someone's hand with their mouth?,improbable,18,Conventional,Improbable,0.952248869591912
children,8,age 5,5.61369863,Block A,ABC,Trial,5,0,3909,walk through a hot fire?,improbable,2,Physics,Improbable,0.08795641894815077
children,8,age 5,5.61369863,Block A,ABC,Trial,6,0,7514,magically appear into the store?,impossible,16,Moral,Impossible,1.638864474981381
children,8,age 5,5.61369863,Block A,ABC,Trial,7,1,8248,unlock a door with a doorkey?,ordinary,5,Physics,Ordinary,1.9546388198158862
children,8,age 5,5.61369863,Block A,ABC,Trial,8,1,12246,turn an onion into onion slices?,ordinary,9,Physics,Ordinary,3.6746195155220867
children,8,age 5,5.61369863,Block A,ABC,Trial,9,1,7061,make their friend smile?,ordinary,15,Moral,Ordinary,1.4439792185644453
children,8,age 5,5.61369863,Block A,ABC,Trial,10,0,9392,be born with 12 toes?,improbable,24,Biology,Improbable,2.4467993790674853
children,8,age 5,5.61369863,Block A,ABC,Trial,11,0,4510,know the names of everyone in the world?,impossible,26,Other,Impossible,0.34651279666686685
children,8,age 5,5.61369863,Block A,ABC,Trial,12,1,5251,find a sweater in a closet?,ordinary,13,Other,Ordinary,0.6652986134548345
children,8,age 5,5.61369863,Block A,ABC,Trial,13,1,3698,eat a brownie for dessert?,ordinary,12,Conventional,Ordinary,-0.0028179499347927932
children,8,age 5,5.61369863,Block A,ABC,Trial,14,0,5251,wear shoes made out of stone?,improbable,17,Conventional,Improbable,0.6652986134548345
children,8,age 5,5.61369863,Block A,ABC,Trial,15,0,2996,have the moon as a pet?,impossible,10,Other,Impossible,-0.30482556583918324
children,8,age 5,5.61369863,Block A,ABC,Trial,16,0,3387,count all of the hairs on a dog?,improbable,6,Physics,Improbable,-0.1366133467243447
children,8,age 5,5.61369863,Block A,ABC,Trial,17,0,5749,not eat for 1 hour?,ordinary,21,Biology,Ordinary,0.879543332429744
children,8,age 5,5.61369863,Block A,ABC,Trial,18,0,11506,stay awake for 5 days?,improbable,23,Biology,Improbable,3.3562639090131854
children,8,age 5,5.61369863,Block A,ABC,Trial,19,1,8185,clean a road?,improbable,8,Physics,Improbable,1.927535572234723
children,8,age 5,5.61369863,Block A,ABC,Trial,20,0,4984,move a marble with their mind?,impossible,1,Physics,Impossible,0.5504324689441903
children,8,age 5,5.61369863,Block A,ABC,Trial,21,1,4555,play with magic?,impossible,20,Conventional,Impossible,0.36587225922484057
children,8,age 5,5.61369863,Block A,ABC,Trial,22,1,4130,open a window with their hand?,ordinary,3,Physics,Ordinary,0.18303289062175518
children,8,age 5,5.61369863,Block A,ABC,Trial,23,0,4936,eat an insect?,improbable,19,Conventional,Improbable,0.5297823755490183
children,8,age 5,5.61369863,Block A,ABC,Trial,24,1,6302,ride a horse?,ordinary,11,Other,Ordinary,1.1174496167532881
children,8,age 5,5.61369863,Block A,ABC,Trial,25,0,5521,paint polka dots on a plane?,improbable,4,Physics,Improbable,0.7814553888026771
children,8,age 5,5.61369863,Block A,ABC,Trial,26,0,3538,eat a large rock?,impossible,14,Moral,Impossible,-0.07165159458536612
children,8,age 5,5.61369863,Block B,ABC,Trial,1,0,2946,eat a rainbow for dessert?,impossible,12,Conventional,Impossible,-0.3263360797924874
children,8,age 5,5.61369863,Block B,ABC,Trial,2,0,7021,turn an onion into apple juice?,impossible,9,Physics,Impossible,1.426770807401802
children,8,age 5,5.61369863,Block B,ABC,Trial,3,1,8038,make a house out of grass?,improbable,7,Physics,Improbable,1.8642946612120086
children,8,age 5,5.61369863,Block B,ABC,Trial,4,0,4966,paint polka dots on a cloud?,impossible,4,Physics,Impossible,0.5426886839210008
children,8,age 5,5.61369863,Block B,ABC,Trial,5,0,2896,buy a large rock?,ordinary,14,Moral,Ordinary,-0.3478465937457916
children,8,age 5,5.61369863,Block B,ABC,Trial,6,1,7668,have a cat as a pet?,ordinary,10,Other,Ordinary,1.7051168579575577
children,8,age 5,5.61369863,Block B,ABC,Trial,7,0,10021,not eat for 100 days?,impossible,21,Biology,Impossible,2.7174016446000517
children,8,age 5,5.61369863,Block B,ABC,Trial,8,1,6478,live for 110 years?,improbable,22,Biology,Improbable,1.1931666258689186
children,8,age 5,5.61369863,Block B,ABC,Trial,9,1,3305,clean a car?,ordinary,8,Physics,Ordinary,-0.17189058960776352
children,8,age 5,5.61369863,Block B,ABC,Trial,10,0,4375,shake someone's hand with their mind?,impossible,18,Conventional,Impossible,0.2884344089929456
children,8,age 5,5.61369863,Block B,ABC,Trial,11,1,6922,be born with 2 feet?,ordinary,24,Biology,Ordinary,1.3841799897742597
children,8,age 5,5.61369863,Block B,ABC,Trial,12,1,5485,unlock a door with a toothpick?,improbable,5,Physics,Improbable,0.765967818756298
children,8,age 5,5.61369863,Block B,ABC,Trial,14,1,10677,eat a lollipop?,ordinary,19,Conventional,Ordinary,2.9996195876674023
children,8,age 5,5.61369863,Block B,ABC,Trial,15,1,10564,wear shoes made out of light?,impossible,17,Conventional,Impossible,2.951005826132935
children,8,age 5,5.61369863,Block B,ABC,Trial,17,1,9428,know the names of everyone they ever met?,improbable,26,Other,Improbable,2.462286949113864
children,8,age 5,5.61369863,Block B,ABC,Trial,18,0,5055,find a monkey in a closet?,improbable,13,Other,Improbable,0.5809773987578822
children,8,age 5,5.61369863,Block B,ABC,Trial,19,0,4469,play with a wolf?,improbable,20,Conventional,Improbable,0.3288741752251574
children,8,age 5,5.61369863,Block B,ABC,Trial,20,1,6273,stay awake for 5 hours?,ordinary,23,Biology,Ordinary,1.1049735186603715
children,8,age 5,5.61369863,Block B,ABC,Trial,22,0,3320,eat a whole whale for dinner?,impossible,25,Biology,Impossible,-0.16543743542177228
children,8,age 5,5.61369863,Block B,ABC,Trial,23,1,6382,make their friend cry?,improbable,15,Moral,Improbable,1.1518664390785747
children,8,age 5,5.61369863,Block B,ABC,Trial,24,0,6152,walk through a brick wall?,impossible,2,Physics,Impossible,1.0529180748933755
children,8,age 5,5.61369863,Block B,ABC,Trial,25,1,4761,count all of the students in a room?,ordinary,6,Physics,Ordinary,0.4544955767124537
children,8,age 5,5.61369863,Block C,ABC,Trial,1,1,4884,eat a pickle for dessert?,improbable,12,Conventional,Improbable,0.507411441037582
children,8,age 5,5.61369863,Block C,ABC,Trial,2,1,4797,steal a large rock?,improbable,14,Moral,Improbable,0.46998314675883274
children,8,age 5,5.61369863,Block C,ABC,Trial,3,0,6272,cut the line to go into the store?,improbable,16,Moral,Improbable,1.1045433083813057
children,8,age 5,5.61369863,Block C,ABC,Trial,4,1,6301,make their friend shrink?,impossible,15,Moral,Impossible,1.117019406474222
children,8,age 5,5.61369863,Block C,ABC,Trial,5,0,4703,wear shoes made out of leather?,ordinary,17,Conventional,Ordinary,0.4295433805266209
children,8,age 5,5.61369863,Block C,ABC,Trial,6,1,4906,open a window with their feet?,improbable,3,Physics,Improbable,0.5168760671770358
children,8,age 5,5.61369863,Block C,ABC,Trial,7,0,5516,eat a whole turkey for dinner?,improbable,25,Biology,Improbable,0.7793043374073466
children,8,age 5,5.61369863,Block C,ABC,Trial,8,1,13813,not eat for 10 days?,improbable,21,Biology,Improbable,4.348759022818639
children,8,age 5,5.61369863,Block C,ABC,Trial,9,1,4333,paint polka dots on a wall?,ordinary,4,Physics,Ordinary,0.2703655772721701
children,8,age 5,5.61369863,Block C,ABC,Trial,10,1,2320,turn an onion into onion juice?,improbable,9,Physics,Improbable,-0.5956477144878556
children,8,age 5,5.61369863,Block C,ABC,Trial,11,1,3881,be born with 2 wings?,impossible,24,Biology,Impossible,0.07591053113430045
children,8,age 5,5.61369863,Block C,ABC,Trial,12,1,3307,walk through an open door?,ordinary,2,Physics,Ordinary,-0.17103016904963136
children,8,age 5,5.61369863,Block C,ABC,Trial,13,1,11565,have a lion as a pet?,improbable,10,Other,Improbable,3.3816463154780845
children,8,age 5,5.61369863,Block C,ABC,Trial,14,1,3203,find a unicorn in a closet?,impossible,13,Other,Impossible,-0.215772038072504
children,8,age 5,5.61369863,Block C,ABC,Trial,15,1,7436,stay awake for 5 years?,impossible,23,Biology,Impossible,1.6053080732142264
children,8,age 5,5.61369863,Block C,ABC,Trial,16,1,5170,count all of the sand in the world?,impossible,6,Physics,Impossible,0.6304515808504818
children,8,age 5,5.61369863,Block C,ABC,Trial,18,1,8376,clean a cloud?,impossible,8,Physics,Impossible,2.0097057355363446
children,8,age 5,5.61369863,Block C,ABC,Trial,19,1,8348,ride an ogre?,impossible,11,Other,Impossible,1.9976598477224945
children,8,age 5,5.61369863,Block C,ABC,Trial,21,1,2376,make a house out of bricks?,ordinary,7,Physics,Ordinary,-0.5715559388601549
children,8,age 5,5.61369863,Block C,ABC,Trial,22,1,8240,eat a planet?,impossible,19,Conventional,Impossible,1.9511971375833574
children,8,age 5,5.61369863,Block C,ABC,Trial,23,0,11712,live for 60 years?,ordinary,22,Biology,Ordinary,3.4448872265007986
children,8,age 5,5.61369863,Block C,ABC,Trial,26,1,5042,move a marble with their hand?,ordinary,1,Physics,Ordinary,0.5753846651300232
children,9,age 5,5.775342466,Block A,CAB,Trial,1,1,2865,make their friend smile?,ordinary,15,Moral,Ordinary,-0.36118311239684014
children,9,age 5,5.775342466,Block A,CAB,Trial,2,1,2708,eat an insect?,improbable,19,Conventional,Improbable,-0.4287261262102152
children,9,age 5,5.775342466,Block A,CAB,Trial,3,0,3871,make a house out of gas?,impossible,7,Physics,Impossible,0.07160842834363962
children,9,age 5,5.775342466,Block A,CAB,Trial,4,0,2927,know the names of everyone in the world?,impossible,26,Other,Impossible,-0.334510075094743
children,9,age 5,5.775342466,Block A,CAB,Trial,5,0,2341,live for 1000 years?,impossible,22,Biology,Impossible,-0.5866132986274678
children,9,age 5,5.775342466,Block A,CAB,Trial,6,1,4065,turn an onion into onion slices?,ordinary,9,Physics,Ordinary,0.15506922248245977
children,9,age 5,5.775342466,Block A,CAB,Trial,7,0,5211,eat a large rock?,impossible,14,Moral,Impossible,0.6480902022921912
children,9,age 5,5.775342466,Block A,CAB,Trial,8,1,4963,eat a whole sandwich for dinner?,ordinary,25,Biology,Ordinary,0.5413980530838025
children,9,age 5,5.775342466,Block A,CAB,Trial,9,0,2789,wear shoes made out of stone?,improbable,17,Conventional,Improbable,-0.3938790936058625
children,9,age 5,5.775342466,Block A,CAB,Trial,10,0,4715,walk through a hot fire?,improbable,2,Physics,Improbable,0.4347059038754139
children,9,age 5,5.775342466,Block A,CAB,Trial,11,0,13396,shake someone's hand with their mouth?,improbable,18,Conventional,Improbable,4.169361336448082
children,9,age 5,5.775342466,Block A,CAB,Trial,12,0,3622,count all of the hairs on a dog?,improbable,6,Physics,Improbable,-0.035513931143815125
children,9,age 5,5.775342466,Block A,CAB,Trial,13,1,12592,eat a brownie for dessert?,ordinary,12,Conventional,Ordinary,3.8234722720789516
children,9,age 5,5.775342466,Block A,CAB,Trial,14,0,14127,clean a road?,improbable,8,Physics,Improbable,4.483845050445389
children,9,age 5,5.775342466,Block A,CAB,Trial,15,0,7228,move a marble with their mind?,impossible,1,Physics,Impossible,1.5158243351684813
children,9,age 5,5.775342466,Block A,CAB,Trial,16,0,6665,not eat for 1 hour?,ordinary,21,Biology,Ordinary,1.2736159480542764
children,9,age 5,5.775342466,Block A,CAB,Trial,17,1,2380,find a sweater in a closet?,ordinary,13,Other,Ordinary,-0.5698350977438905
children,9,age 5,5.775342466,Block A,CAB,Trial,18,0,8974,be born with 12 toes?,improbable,24,Biology,Improbable,2.2669714824178624
children,9,age 5,5.775342466,Block A,CAB,Trial,19,0,2935,magically appear into the store?,impossible,16,Moral,Impossible,-0.33106839286221434
children,9,age 5,5.775342466,Block A,CAB,Trial,21,0,2824,have the moon as a pet?,impossible,10,Other,Impossible,-0.37882173383854956
children,9,age 5,5.775342466,Block A,CAB,Trial,22,0,5852,stay awake for 5 days?,improbable,23,Biology,Improbable,0.9238549911735505
children,9,age 5,5.775342466,Block A,CAB,Trial,23,1,2759,ride a horse?,ordinary,11,Other,Ordinary,-0.40678540197784496
children,9,age 5,5.775342466,Block A,CAB,Trial,24,0,3496,play with magic?,impossible,20,Conventional,Impossible,-0.08972042630614162
children,9,age 5,5.775342466,Block A,CAB,Trial,25,1,3355,open a window with their hand?,ordinary,3,Physics,Ordinary,-0.15038007565445935
children,9,age 5,5.775342466,Block A,CAB,Trial,26,1,4691,paint polka dots on a plane?,improbable,4,Physics,Improbable,0.4243808571778279
children,9,age 5,5.775342466,Block B,CAB,Trial,1,0,2401,find a monkey in a closet?,improbable,13,Other,Improbable,-0.5608006818835028
children,9,age 5,5.775342466,Block B,CAB,Trial,2,1,3150,eat a lollipop?,ordinary,19,Conventional,Ordinary,-0.23857318286300644
children,9,age 5,5.775342466,Block B,CAB,Trial,3,1,4455,count all of the students in a room?,ordinary,6,Physics,Ordinary,0.32285123131823223
children,9,age 5,5.775342466,Block B,CAB,Trial,4,0,4878,turn an onion into apple juice?,impossible,9,Physics,Impossible,0.5048301793631854
children,9,age 5,5.775342466,Block B,CAB,Trial,5,0,3047,wear shoes made out of light?,impossible,17,Conventional,Impossible,-0.282884841606813
children,9,age 5,5.775342466,Block B,CAB,Trial,6,1,2278,wait in line to go into the store?,ordinary,16,Moral,Ordinary,-0.613716546208631
children,9,age 5,5.775342466,Block B,CAB,Trial,7,0,2645,paint polka dots on a cloud?,impossible,4,Physics,Impossible,-0.4558293737913785
children,9,age 5,5.775342466,Block B,CAB,Trial,8,1,5515,move a marble with their breath?,improbable,1,Physics,Improbable,0.7788741271282805
children,9,age 5,5.775342466,Block B,CAB,Trial,9,1,3640,make their friend cry?,improbable,15,Moral,Improbable,-0.027770146120625623
children,9,age 5,5.775342466,Block B,CAB,Trial,10,1,1899,walk through a brick wall?,impossible,2,Physics,Impossible,-0.7767662419746766
children,9,age 5,5.775342466,Block B,CAB,Trial,11,1,3738,play with a wolf?,improbable,20,Conventional,Improbable,0.014390461227850537
children,9,age 5,5.775342466,Block B,CAB,Trial,12,1,4297,have a cat as a pet?,ordinary,10,Other,Ordinary,0.25487800722579107
children,9,age 5,5.775342466,Block B,CAB,Trial,13,0,2513,eat a rainbow for dessert?,impossible,12,Conventional,Impossible,-0.5126171306281014
children,9,age 5,5.775342466,Block B,CAB,Trial,15,1,2820,know the names of everyone they ever met?,improbable,26,Other,Improbable,-0.3805425749548139
children,9,age 5,5.775342466,Block B,CAB,Trial,17,0,5667,not eat for 100 days?,impossible,21,Biology,Impossible,0.8442660895463252
children,9,age 5,5.775342466,Block B,CAB,Trial,18,0,2154,shake someone's hand with their mind?,impossible,18,Conventional,Impossible,-0.6670626208128254
children,9,age 5,5.775342466,Block B,CAB,Trial,19,1,2715,be born with 2 feet?,ordinary,24,Biology,Ordinary,-0.42571465425675264
children,9,age 5,5.775342466,Block B,CAB,Trial,20,1,3255,ride a cow?,improbable,11,Other,Improbable,-0.19340110356106768
children,9,age 5,5.775342466,Block B,CAB,Trial,21,0,4209,live for 110 years?,improbable,22,Biology,Improbable,0.21701950266797576
children,9,age 5,5.775342466,Block B,CAB,Trial,22,0,5228,open a window with their breath?,impossible,3,Physics,Impossible,0.6554037770363146
children,9,age 5,5.775342466,Block B,CAB,Trial,23,0,9570,stay awake for 5 hours?,ordinary,23,Biology,Ordinary,2.523376808741248
children,9,age 5,5.775342466,Block B,CAB,Trial,24,0,3416,eat a whole whale for dinner?,impossible,25,Biology,Impossible,-0.12413724863142828
children,9,age 5,5.775342466,Block B,CAB,Trial,25,0,3966,make a house out of grass?,improbable,7,Physics,Improbable,0.11247840485491753
children,9,age 5,5.775342466,Block B,CAB,Trial,26,1,3321,clean a car?,ordinary,8,Physics,Ordinary,-0.1650072251427062
children,9,age 5,5.775342466,Block C,CAB,Trial,1,0,2212,eat a pickle for dessert?,improbable,12,Conventional,Improbable,-0.6421104246269925
children,9,age 5,5.775342466,Block C,CAB,Trial,2,0,2386,cut the line to go into the store?,improbable,16,Moral,Improbable,-0.5672538360694941
children,9,age 5,5.775342466,Block C,CAB,Trial,4,0,2231,be born with 2 wings?,impossible,24,Biology,Impossible,-0.6339364293247369
children,9,age 5,5.775342466,Block C,CAB,Trial,5,1,6342,paint polka dots on a wall?,ordinary,4,Physics,Ordinary,1.1346580279159313
children,9,age 5,5.775342466,Block C,CAB,Trial,6,0,2800,have a lion as a pet?,improbable,10,Other,Improbable,-0.38914678053613555
children,9,age 5,5.775342466,Block C,CAB,Trial,7,0,2023,find a unicorn in a closet?,impossible,13,Other,Impossible,-0.7234201673704823
children,9,age 5,5.775342466,Block C,CAB,Trial,8,0,2144,clean a cloud?,impossible,8,Physics,Impossible,-0.6713647236034862
children,9,age 5,5.775342466,Block C,CAB,Trial,9,1,2334,play with a toy?,ordinary,20,Conventional,Ordinary,-0.5896247705809303
children,9,age 5,5.775342466,Block C,CAB,Trial,10,1,4879,live for 60 years?,ordinary,22,Biology,Ordinary,0.5052603896422515
children,9,age 5,5.775342466,Block C,CAB,Trial,11,0,13479,open a window with their feet?,improbable,3,Physics,Improbable,4.205068789610567
children,9,age 5,5.775342466,Block C,CAB,Trial,12,1,3061,make a house out of bricks?,ordinary,7,Physics,Ordinary,-0.27686189769988784
children,9,age 5,5.775342466,Block C,CAB,Trial,13,0,7214,not eat for 10 days?,improbable,21,Biology,Improbable,1.509801391261556
children,9,age 5,5.775342466,Block C,CAB,Trial,14,1,11485,count all of the sand in the world?,impossible,6,Physics,Impossible,3.3472294931527977
children,9,age 5,5.775342466,Block C,CAB,Trial,15,1,3160,turn an onion into onion juice?,improbable,9,Physics,Improbable,-0.2342710800723456
children,9,age 5,5.775342466,Block C,CAB,Trial,16,1,2423,shake someone's hand with their hand?,ordinary,18,Conventional,Ordinary,-0.551336055744049
children,9,age 5,5.775342466,Block C,CAB,Trial,17,0,4028,eat a planet?,impossible,19,Conventional,Impossible,0.1391514421570147
children,9,age 5,5.775342466,Block C,CAB,Trial,18,1,8087,stay awake for 5 years?,impossible,23,Biology,Impossible,1.8853749648862468
children,9,age 5,5.775342466,Block C,CAB,Trial,19,1,3946,wear shoes made out of leather?,ordinary,17,Conventional,Ordinary,0.10387419927359585
children,9,age 5,5.775342466,Block C,CAB,Trial,20,1,2901,steal a large rock?,improbable,14,Moral,Improbable,-0.3456955423504612
children,9,age 5,5.775342466,Block C,CAB,Trial,21,1,2993,eat a whole turkey for dinner?,improbable,25,Biology,Improbable,-0.3061161966763815
children,9,age 5,5.775342466,Block C,CAB,Trial,22,1,3330,walk through an open door?,ordinary,2,Physics,Ordinary,-0.16113533263111143
children,9,age 5,5.775342466,Block C,CAB,Trial,23,0,6431,unlock a door with their mind?,impossible,5,Physics,Impossible,1.1729467427528129
children,9,age 5,5.775342466,Block C,CAB,Trial,24,1,3515,move a marble with their hand?,ordinary,1,Physics,Ordinary,-0.08154643100388603
children,9,age 5,5.775342466,Block C,CAB,Trial,25,0,2536,know the name of someone they just met?,ordinary,26,Other,Ordinary,-0.5027222942095816
children,9,age 5,5.775342466,Block C,CAB,Trial,26,0,2696,make their friend shrink?,impossible,15,Moral,Impossible,-0.43388864955900824
children,10,age 5,5.043835616,Block A,CAB,Trial,1,1,6361.6,open a window with their hand?,ordinary,3,Physics,Ordinary,1.1430901493856267
children,10,age 5,5.043835616,Block A,CAB,Trial,2,0,4617.4,eat a brownie for dessert?,ordinary,12,Conventional,Ordinary,0.392717380638564
children,10,age 5,5.043835616,Block A,CAB,Trial,3,0,3754.9,not eat for 1 hour?,ordinary,21,Biology,Ordinary,0.021661014944067383
children,10,age 5,5.043835616,Block A,CAB,Trial,4,0,4027.9,clean a road?,improbable,8,Physics,Improbable,0.13910842112910812
children,10,age 5,5.043835616,Block A,CAB,Trial,5,0,5879.6,walk through a hot fire?,improbable,2,Physics,Improbable,0.9357287948757746
children,10,age 5,5.043835616,Block A,CAB,Trial,6,0,5764.8,shake someone's hand with their mouth?,improbable,18,Conventional,Improbable,0.8863406548389882
children,10,age 5,5.043835616,Block A,CAB,Trial,7,0,4207.3,eat an insect?,improbable,19,Conventional,Improbable,0.21628814519356349
children,10,age 5,5.043835616,Block A,CAB,Trial,8,0,4529.6,make a house out of gas?,impossible,7,Physics,Impossible,0.3549449181365622
children,10,age 5,5.043835616,Block A,CAB,Trial,9,0,10450.6,count all of the hairs on a dog?,improbable,6,Physics,Improbable,2.902219980486841
children,10,age 5,5.043835616,Block A,CAB,Trial,10,0,4559.4,know the names of everyone in the world?,impossible,26,Other,Impossible,0.3677651844527312
children,10,age 5,5.043835616,Block A,CAB,Trial,11,0,3813.9,eat a large rock?,impossible,14,Moral,Impossible,0.0470434214089663
children,10,age 5,5.043835616,Block A,CAB,Trial,12,1,3192.5,find a sweater in a closet?,ordinary,13,Other,Ordinary,-0.2202892460026979
children,10,age 5,5.043835616,Block A,CAB,Trial,13,0,3227.3,live for 1000 years?,impossible,22,Biology,Impossible,-0.2053179282911981
children,10,age 5,5.043835616,Block A,CAB,Trial,14,0,2832.9,move a marble with their mind?,impossible,1,Physics,Impossible,-0.3749928623548614
children,10,age 5,5.043835616,Block A,CAB,Trial,15,0,3916,eat a whole sandwich for dinner?,ordinary,25,Biology,Ordinary,0.09096789090161336
children,10,age 5,5.043835616,Block A,CAB,Trial,16,0,5233.1,stay awake for 5 days?,improbable,23,Biology,Improbable,0.6575978494595518
children,10,age 5,5.043835616,Block A,CAB,Trial,17,1,3664,make their friend smile?,ordinary,15,Moral,Ordinary,-0.017445099423039626
children,10,age 5,5.043835616,Block A,CAB,Trial,18,1,3992,ride a horse?,ordinary,11,Other,Ordinary,0.12366387211063569
children,10,age 5,5.043835616,Block A,CAB,Trial,19,0,7190.1,be born with 12 toes?,improbable,24,Biology,Improbable,1.4995193655918768
children,10,age 5,5.043835616,Block A,CAB,Trial,21,1,5940.2,unlock a door with a doorkey?,ordinary,5,Physics,Ordinary,0.9617995377871791
children,10,age 5,5.043835616,Block A,CAB,Trial,22,0,5112.9,magically appear into the store?,impossible,16,Moral,Impossible,0.6058865739158082
children,10,age 5,5.043835616,Block A,CAB,Trial,23,0,5039.5,wear shoes made out of stone?,improbable,17,Conventional,Improbable,0.574309139432358
children,10,age 5,5.043835616,Block A,CAB,Trial,24,0,4356.9,turn an onion into onion slices?,ordinary,9,Physics,Ordinary,0.2806476029418493
children,10,age 5,5.043835616,Block A,CAB,Trial,25,0,3819.4,paint polka dots on a plane?,improbable,4,Physics,Improbable,0.049409577943829754
children,10,age 5,5.043835616,Block A,CAB,Trial,26,0,9565.6,play with magic?,impossible,20,Conventional,Impossible,2.5214838835133575
children,10,age 5,5.043835616,Block B,CAB,Trial,2,1,6219.9,ride a cow?,improbable,11,Other,Improbable,1.0821293528419624
children,10,age 5,5.043835616,Block B,CAB,Trial,3,0,11881.2,shake someone's hand with their mind?,impossible,18,Conventional,Impossible,3.5176788057187802
children,10,age 5,5.043835616,Block B,CAB,Trial,5,0,6667.7,move a marble with their breath?,improbable,1,Physics,Improbable,1.2747775158077546
children,10,age 5,5.043835616,Block B,CAB,Trial,6,0,3955.9,unlock a door with a toothpick?,improbable,5,Physics,Improbable,0.10813328103635012
children,10,age 5,5.043835616,Block B,CAB,Trial,7,0,5462.1,play with a wolf?,improbable,20,Conventional,Improbable,0.7561160033656849
children,10,age 5,5.043835616,Block B,CAB,Trial,8,0,5662.1,buy a large rock?,ordinary,14,Moral,Ordinary,0.8421580591789015
children,10,age 5,5.043835616,Block B,CAB,Trial,9,0,3263.7,wear shoes made out of light?,impossible,17,Conventional,Impossible,-0.18965827413319283
children,10,age 5,5.043835616,Block B,CAB,Trial,10,1,6951.5,wait in line to go into the store?,ordinary,16,Moral,Ordinary,1.396871193006709
children,10,age 5,5.043835616,Block B,CAB,Trial,11,0,4278.2,open a window with their breath?,impossible,3,Physics,Impossible,0.24679005397934864
children,10,age 5,5.043835616,Block B,CAB,Trial,12,0,3233,not eat for 100 days?,impossible,21,Biology,Impossible,-0.20286572970052152
children,10,age 5,5.043835616,Block B,CAB,Trial,13,0,4501.1,eat a rainbow for dessert?,impossible,12,Conventional,Impossible,0.34268392518317886
children,10,age 5,5.043835616,Block B,CAB,Trial,14,0,3235,find a monkey in a closet?,improbable,13,Other,Improbable,-0.20200530914238934
children,10,age 5,5.043835616,Block B,CAB,Trial,15,0,6538.7,stay awake for 5 hours?,ordinary,23,Biology,Ordinary,1.2192803898082298
children,10,age 5,5.043835616,Block B,CAB,Trial,16,1,4250.5,eat a lollipop?,ordinary,19,Conventional,Ordinary,0.23487322924921822
children,10,age 5,5.043835616,Block B,CAB,Trial,17,1,3959.6,have a cat as a pet?,ordinary,10,Other,Ordinary,0.10972505906889456
children,10,age 5,5.043835616,Block B,CAB,Trial,18,0,4062.9,make a house out of grass?,improbable,7,Physics,Improbable,0.15416578089642102
children,10,age 5,5.043835616,Block B,CAB,Trial,19,0,2960.4,be born with 2 feet?,ordinary,24,Biology,Ordinary,-0.32014105177393576
children,10,age 5,5.043835616,Block B,CAB,Trial,20,1,6149.4,make their friend cry?,improbable,15,Moral,Improbable,1.0517995281678036
children,10,age 5,5.043835616,Block B,CAB,Trial,21,1,6337.3,eat a whole whale for dinner?,impossible,25,Biology,Impossible,1.132636039604321
children,10,age 5,5.043835616,Block B,CAB,Trial,22,0,3329,count all of the students in a room?,ordinary,6,Physics,Ordinary,-0.16156554291017752
children,10,age 5,5.043835616,Block B,CAB,Trial,23,0,2862.4,clean a car?,ordinary,8,Physics,Ordinary,-0.3623016591224119
children,10,age 5,5.043835616,Block B,CAB,Trial,24,0,5308.9,know the names of everyone they ever met?,improbable,26,Other,Improbable,0.6902077886127606
children,10,age 5,5.043835616,Block B,CAB,Trial,25,0,10566.4,paint polka dots on a cloud?,impossible,4,Physics,Impossible,2.9520383308026936
children,10,age 5,5.043835616,Block B,CAB,Trial,26,1,12002.2,walk through a brick wall?,impossible,2,Physics,Impossible,3.569734249485776
children,10,age 5,5.043835616,Block C,CAB,Trial,1,1,3526.5,play with a toy?,ordinary,20,Conventional,Ordinary,-0.07659901279462608
children,10,age 5,5.043835616,Block C,CAB,Trial,2,0,6628.4,clean a cloud?,impossible,8,Physics,Impossible,1.2578702518404574
children,10,age 5,5.043835616,Block C,CAB,Trial,3,0,7293.8,unlock a door with their mind?,impossible,5,Physics,Impossible,1.5441321715310294
children,10,age 5,5.043835616,Block C,CAB,Trial,4,1,5739.9,shake someone's hand with their hand?,ordinary,18,Conventional,Ordinary,0.8756284188902425
children,10,age 5,5.043835616,Block C,CAB,Trial,5,0,12975.2,eat a pickle for dessert?,improbable,12,Conventional,Improbable,3.9883288510170747
children,10,age 5,5.043835616,Block C,CAB,Trial,6,0,5221.6,not eat for 10 days?,improbable,21,Biology,Improbable,0.6526504312502919
children,10,age 5,5.043835616,Block C,CAB,Trial,7,0,6301.5,live for 60 years?,ordinary,22,Biology,Ordinary,1.117234511613755
children,10,age 5,5.043835616,Block C,CAB,Trial,8,0,4092.3,make their friend shrink?,impossible,15,Moral,Impossible,0.1668139631009639
children,10,age 5,5.043835616,Block C,CAB,Trial,9,0,4080.9,eat a planet?,impossible,19,Conventional,Impossible,0.16190956591961053
children,10,age 5,5.043835616,Block C,CAB,Trial,10,0,4175.8,eat a whole turkey for dinner?,improbable,25,Biology,Improbable,0.20273652140298187
children,10,age 5,5.043835616,Block C,CAB,Trial,11,0,2805.8,open a window with their feet?,improbable,3,Physics,Improbable,-0.3866515609175522
children,10,age 5,5.043835616,Block C,CAB,Trial,12,0,7601.4,turn an onion into onion juice?,improbable,9,Physics,Improbable,1.6764648533717565
