subject_id,study_id,session_id,trial_index,internal_node_id,time_elapsed,rt,stimulus,slider_start,response,item_id,verb,verb_participle,object,prep,classification_prefix,binary_prefix,sentence_prefix,probable,improbable,impossible,inconceivable,task_type,trial_type,rng_seed,condition,query,session_file_id,unique_id,response_item_normalized,rt_normalized,response_subj_normalized
anon_subject_45,65d4fc29515df31cd1044a85,65d664954d11b0c9c36f1cef,1,0.0-1.0-0.0,15738,9480,"<div style=""font-size:20px;""><p>How likely is it for someone to clean a spill using a country?</p></div>",50,0,11,clean,cleaning,a spill,using,cleaning a spill using,Could someone clean a spill using,[NP] cleaned a spill using,a sponge,a scarf,mustard,a country,critical,html-slider-response,0.5386339036811374,inconceivable,How likely is it for someone to clean a spill using a country?,session-65d665f21a7eb,11_inconceivable,-0.8551606804706297,2.0947530269645203,-0.7740305840743247
anon_subject_45,65d4fc29515df31cd1044a85,65d664954d11b0c9c36f1cef,2,0.0-1.0-0.1,18522,2781,"<div style=""font-size:20px;""><p>How likely is it for someone to shave their beard using a belief?</p></div>",50,0,54,shave,shaving,[POSS] beard,using,shaving [POSS] beard using,Could someone shave [POSS] beard using,[NP] shaved [POSS] beard using,a razor,a knife,a teabag,a belief,critical,html-slider-response,0.5386339036811374,inconceivable,How likely is it for someone to shave their beard using a belief?,session-65d665f21a7eb,54_inconceivable,-0.7781461708272603,-0.7567365543642861,-0.7740305840743247
anon_subject_45,65d4fc29515df31cd1044a85,65d664954d11b0c9c36f1cef,3,0.0-1.0-0.2,21591,3067,"<div style=""font-size:20px;""><p>How likely is it for someone to turn an apple into a cherry?</p></div>",50,0,63,turn,turning,an apple,into,turning an apple into,Could someone turn an apple into,[NP] turned an apple into,a pie,a salad,a cherry,honesty,critical,html-slider-response,0.5386339036811374,impossible,How likely is it for someone to turn an apple into a cherry?,session-65d665f21a7eb,63_impossible,-0.9495814865557626,-0.6349980829118248,-0.7740305840743247
anon_subject_45,65d4fc29515df31cd1044a85,65d664954d11b0c9c36f1cef,4,0.0-1.0-0.3,24307,2715,"<div style=""font-size:20px;""><p>How likely is it for someone to light a candle using a match?</p></div>",50,100,39,light,lighting,a candle,using,lighting a candle using,Could someone light a candle using,[NP] lit a candle using,a match,a blowtorch,yogurt,surprises,critical,html-slider-response,0.5386339036811374,probable,How likely is it for someone to light a candle using a match?,session-65d665f21a7eb,39_probable,1.9431259530099192,-0.7848300477763925,1.5847913961260551
anon_subject_45,65d4fc29515df31cd1044a85,65d664954d11b0c9c36f1cef,5,0.0-1.0-0.4,27365,3056,"<div style=""font-size:20px;""><p>How likely is it for someone to tighten a bolt using chopsticks?</p></div>",50,0,62,tighten,tightening,a bolt,using,tightening a bolt using,Could someone tighten a bolt using,[NP] tightened a bolt using,a wrench,chopsticks,a house,a dream,critical,html-slider-response,0.5386339036811374,improbable,How likely is it for someone to tighten a bolt using chopsticks?,session-65d665f21a7eb,62_improbable,-0.6332148143025326,-0.6396803318138425,-0.7740305840743247
anon_subject_45,65d4fc29515df31cd1044a85,65d664954d11b0c9c36f1cef,6,0.0-1.0-0.5,30577,3209,"<div style=""font-size:20px;""><p>How likely is it for someone to eat soup using a spoon?</p></div>",50,100,31,eat,eating,soup,using,eating soup using,Could someone eat soup using,[NP] ate soup using,a spoon,a bucket,a sieve,history,critical,html-slider-response,0.5386339036811374,probable,How likely is it for someone to eat soup using a spoon?,session-65d665f21a7eb,31_probable,1.2571378521588434,-0.5745545061766866,1.5847913961260551
anon_subject_45,65d4fc29515df31cd1044a85,65d664954d11b0c9c36f1cef,7,0.0-1.0-0.6,35872,5294,"<div style=""font-size:20px;""><p>How likely is it for someone to display books on a shelf?</p></div>",50,87,26,display,displaying,books,on,displaying books on,Could someone display books on,[NP] displayed books on,a shelf,a bed,a galaxy,a sigh,critical,html-slider-response,0.5386339036811374,probable,How likely is it for someone to display books on a shelf?,session-65d665f21a7eb,26_probable,0.9774768052828672,0.3129444902512223,1.2781445387000057
anon_subject_45,65d4fc29515df31cd1044a85,65d664954d11b0c9c36f1cef,8,0.0-1.0-0.7,39356,3482,"<div style=""font-size:20px;""><p>How likely is it for someone to bake a cake inside a freezer?</p></div>",50,0,0,bake,baking,a cake,inside,baking a cake inside,Could someone bake a cake inside,[NP] baked a cake inside,an oven,an airfryer,a freezer,a sigh,critical,html-slider-response,0.5386339036811374,impossible,How likely is it for someone to bake a cake inside a freezer?,session-65d665f21a7eb,0_impossible,-0.97415022312704,-0.458349601608428,-0.7740305840743247
anon_subject_45,65d4fc29515df31cd1044a85,65d664954d11b0c9c36f1cef,9,0.0-1.0-0.8,42798,3440,"<div style=""font-size:20px;""><p>How likely is it for someone to dock a boat using a balloon?</p></div>",50,0,27,dock,docking,a boat,using,docking a boat using,Could someone dock a boat using,[NP] docked a boat using,an anchor,an anvil,a balloon,a lesson,critical,html-slider-response,0.5386339036811374,impossible,How likely is it for someone to dock a boat using a balloon?,session-65d665f21a7eb,27_impossible,-0.6869861024029993,-0.47622727923431396,-0.7740305840743247
anon_subject_45,65d4fc29515df31cd1044a85,65d664954d11b0c9c36f1cef,10,0.0-1.0-0.9,46800,4001,"<div style=""font-size:20px;""><p>How likely is it for someone to remove a stain using dirt?</p></div>",50,0,50,remove,removing,a stain,using,removing a stain using,Could someone remove a stain using,[NP] removed a stain using,bleach,vinegar,dirt,truth,critical,html-slider-response,0.5386339036811374,impossible,How likely is it for someone to remove a stain using dirt?,session-65d665f21a7eb,50_impossible,-1.3186465100945097,-0.23743258523140898,-0.7740305840743247
anon_subject_45,65d4fc29515df31cd1044a85,65d664954d11b0c9c36f1cef,11,0.0-1.0-0.10,51611,4809,"<div style=""font-size:20px;""><p>How likely is it for someone to open a jar using an opinion?</p></div>",50,0,43,open,opening,a jar,using,opening a jar using,Could someone open a jar using,[NP] opened a jar using,[POSS] hands,[POSS] feet,[POSS] mind,an opinion,critical,html-slider-response,0.5386339036811374,inconceivable,How likely is it for someone to open a jar using an opinion?,session-65d665f21a7eb,43_inconceivable,-0.7611789347855017,0.10649987957134899,-0.7740305840743247
anon_subject_45,65d4fc29515df31cd1044a85,65d664954d11b0c9c36f1cef,12,0.0-1.0-0.11,58546,6934,"<div style=""font-size:20px;""><p>How likely is it for someone to fill a purse with luck?</p></div>",50,10,34,fill,filling,a purse,with,filling a purse with,Could someone fill a purse with,[NP] filled a purse with,coins,cream,sofas,luck,critical,html-slider-response,0.5386339036811374,inconceivable,How likely is it for someone to fill a purse with luck?,session-65d665f21a7eb,34_inconceivable,-0.6602515702996414,1.0110252356429588,-0.5381483860542867
anon_subject_45,65d4fc29515df31cd1044a85,65d664954d11b0c9c36f1cef,13,0.0-1.0-0.12,62459,3911,"<div style=""font-size:20px;""><p>How likely is it for someone to store dishes inside an equation?</p></div>",50,0,60,store,storing,dishes,inside,storing dishes inside,Could someone store dishes inside,[NP] stored dishes inside,a cabinet,an attic,a thimble,an equation,critical,html-slider-response,0.5386339036811374,inconceivable,How likely is it for someone to store dishes inside an equation?,session-65d665f21a7eb,60_inconceivable,-0.8858136741386866,-0.27574189442973596,-0.7740305840743247
anon_subject_45,65d4fc29515df31cd1044a85,65d664954d11b0c9c36f1cef,14,0.0-1.0-0.13,64872,2412,"<div style=""font-size:20px;""><p>How likely is it for someone to cook dinner out of the moon?</p></div>",50,0,16,cook,cooking,dinner,out of,cooking dinner out of,Could someone cook dinner out of,[NP] cooked dinner out of,pasta,insects,the moon,thoughts,critical,html-slider-response,0.5386339036811374,impossible,How likely is it for someone to cook dinner out of the moon?,session-65d665f21a7eb,16_impossible,-0.9052193076847832,-0.9138047220774268,-0.7740305840743247
anon_subject_45,65d4fc29515df31cd1044a85,65d664954d11b0c9c36f1cef,15,0.0-1.0-0.14,67320,2446,"<div style=""font-size:20px;""><p>How likely is it for someone to break a coconut using a texture?</p></div>",50,0,2,break,breaking,a coconut,using,breaking a coconut using,Could someone break a coconut using,[NP] broke a coconut using,a rock,a table,a pillow,a texture,critical,html-slider-response,0.5386339036811374,inconceivable,How likely is it for someone to break a coconut using a texture?,session-65d665f21a7eb,2_inconceivable,-0.7112125568262287,-0.8993323163802811,-0.7740305840743247
anon_subject_45,65d4fc29515df31cd1044a85,65d664954d11b0c9c36f1cef,16,0.0-1.0-0.15,69744,2423,"<div style=""font-size:20px;""><p>How likely is it for someone to dent a car with a breeze?</p></div>",50,0,23,dent,denting,a car,with,denting a car with,Could someone dent a car with,[NP] dented a car with,a baseball bat,a dumbbell,a breeze,a nap,critical,html-slider-response,0.5386339036811374,impossible,How likely is it for someone to dent a car with a breeze?,session-65d665f21a7eb,23_impossible,-0.8614731849973171,-0.9091224731754091,-0.7740305840743247
anon_subject_45,65d4fc29515df31cd1044a85,65d664954d11b0c9c36f1cef,17,0.0-1.0-0.16,76647,6901,"<div style=""font-size:20px;""><p>How likely is it for someone to cut grass using a scythe?</p></div>",50,37,21,cut,cutting,grass,using,cutting grass using,Could someone cut grass using,[NP] cut grass using,a lawnmower,a scythe,a popsicle,an essay,critical,html-slider-response,0.5386339036811374,improbable,How likely is it for someone to cut grass using a scythe?,session-65d665f21a7eb,21_improbable,-0.06082806984305782,0.9969784889369055,0.09873354859981584
anon_subject_45,65d4fc29515df31cd1044a85,65d664954d11b0c9c36f1cef,18,0.0-1.0-0.17,80933,4285,"<div style=""font-size:20px;""><p>How likely is it for someone to hang a painting using vapor?</p></div>",50,0,36,hang,hanging,a painting,using,hanging a painting using,Could someone hang a painting using,[NP] hung a painting using,screws,string,vapor,a handshake,critical,html-slider-response,0.5386339036811374,impossible,How likely is it for someone to hang a painting using vapor?,session-65d665f21a7eb,36_impossible,-0.9863372429289897,-0.11654543176113266,-0.7740305840743247
anon_subject_45,65d4fc29515df31cd1044a85,65d664954d11b0c9c36f1cef,19,0.0-1.0-0.18,86282,5347,"<div style=""font-size:20px;""><p>How likely is it for someone to wear shoes made of wood?</p></div>",50,16,66,wear,wearing,shoes,made of,wearing shoes made of,Could someone wear shoes made of,[NP] wore shoes made of,leather,wood,stars,traffic,critical,html-slider-response,0.5386339036811374,improbable,How likely is it for someone to wear shoes made of wood?,session-65d665f21a7eb,66_improbable,-0.3109076184311025,0.33550441677912596,-0.39661906724226387
anon_subject_45,65d4fc29515df31cd1044a85,65d664954d11b0c9c36f1cef,20,0.0-1.0-0.19,89729,3446,"<div style=""font-size:20px;""><p>How likely is it for someone to make a sandwich using bread?</p></div>",50,100,40,make,making,a sandwich,using,making a sandwich using,Could someone make a sandwich using,[NP] made a sandwich using,bread,lettuce,a star,a mile,critical,html-slider-response,0.5386339036811374,probable,How likely is it for someone to make a sandwich using bread?,session-65d665f21a7eb,40_probable,1.0275692144855864,-0.47367332528775885,1.5847913961260551
anon_subject_45,65d4fc29515df31cd1044a85,65d664954d11b0c9c36f1cef,21,0.0-1.0-0.20,94773,5042,"<div style=""font-size:20px;""><p>How likely is it for someone to carve a statue using a sock?</p></div>",50,0,7,carve,carving,a statue,using,carving a statue using,Could someone carve a statue using,[NP] carved a statue using,a chisel,a nail,a sock,laughter,critical,html-slider-response,0.5386339036811374,impossible,How likely is it for someone to carve a statue using a sock?,session-65d665f21a7eb,7_impossible,-0.9065152140034349,0.20567842449590668,-0.7740305840743247
anon_subject_45,65d4fc29515df31cd1044a85,65d664954d11b0c9c36f1cef,22,0.0-1.0-0.21,97271,2497,"<div style=""font-size:20px;""><p>How likely is it for someone to squeeze juice from a mumble?</p></div>",50,0,57,squeeze,squeezing,juice,from,squeezing juice from,Could someone squeeze juice from,[NP] squeezed juice from,an orange,meat,an envelope,a mumble,critical,html-slider-response,0.5386339036811374,inconceivable,How likely is it for someone to squeeze juice from a mumble?,session-65d665f21a7eb,57_inconceivable,-0.8124870049889703,-0.8776237078345624,-0.7740305840743247
anon_subject_45,65d4fc29515df31cd1044a85,65d664954d11b0c9c36f1cef,23,0.0-1.0-0.22,104476,7204,"<div style=""font-size:20px;""><p>How likely is it for someone to climb a tree using a rope?</p></div>",50,68,13,climb,climbing,a tree,using,climbing a tree using,Could someone climb a tree using,[NP] climbed a tree using,a ladder,a rope,oil,a poem,critical,html-slider-response,0.5386339036811374,improbable,How likely is it for someone to climb a tree using a rope?,session-65d665f21a7eb,13_improbable,0.4067523953912016,1.1259531632379398,0.8299683624619335
anon_subject_45,65d4fc29515df31cd1044a85,65d664954d11b0c9c36f1cef,24,0.0-1.0-0.23,108513,4036,"<div style=""font-size:20px;""><p>How likely is it for someone to shatter a window using a stone?</p></div>",50,100,53,shatter,shattering,a window,using,shattering a window using,Could someone shatter a window using,[NP] shattered a window using,a stone,a frisbee,confetti,a concept,critical,html-slider-response,0.5386339036811374,probable,How likely is it for someone to shatter a window using a stone?,session-65d665f21a7eb,53_probable,1.3885010064763135,-0.22253452054317072,1.5847913961260551
anon_subject_45,65d4fc29515df31cd1044a85,65d664954d11b0c9c36f1cef,25,0.0-1.0-0.24,117819,9304,"<div style=""font-size:20px;""><p>How likely is it for someone to crush a soda can using a tissue?</p></div>",50,13,20,crush,crushing,a soda can,using,crushing a soda can using,Could someone crush a soda can using,[NP] crushed a soda can using,a shoe,a chair,a tissue,a day,critical,html-slider-response,0.5386339036811374,impossible,How likely is it for someone to crush a soda can using a tissue?,session-65d665f21a7eb,20_impossible,-0.17882666251914325,2.0198370445322364,-0.46738372664827527
anon_subject_45,65d4fc29515df31cd1044a85,65d664954d11b0c9c36f1cef,26,0.0-1.0-0.25,120443,2622,"<div style=""font-size:20px;""><p>How likely is it for someone to drink a cup full of lightning?</p></div>",50,0,28,drink,drinking,a cup,full of,drinking a cup full of,Could someone drink a cup full of,[NP] drank a cup full of,water,honey,lightning,minutes,critical,html-slider-response,0.5386339036811374,impossible,How likely is it for someone to drink a cup full of lightning?,session-65d665f21a7eb,28_impossible,-0.7382479513265648,-0.8244163339479972,-0.7740305840743247
anon_subject_45,65d4fc29515df31cd1044a85,65d664954d11b0c9c36f1cef,27,0.0-1.0-0.26,123032,2587,"<div style=""font-size:20px;""><p>How likely is it for someone to grow flowers inside a marble?</p></div>",50,0,35,grow,growing,flowers,inside,growing flowers inside,Could someone grow flowers inside,[NP] grew flowers inside,a pot,a mug,a marble,a sneeze,critical,html-slider-response,0.5386339036811374,impossible,How likely is it for someone to grow flowers inside a marble?,session-65d665f21a7eb,35_impossible,-0.9983951749527125,-0.8393143986362355,-0.7740305840743247
anon_subject_45,65d4fc29515df31cd1044a85,65d664954d11b0c9c36f1cef,28,0.0-1.0-0.27,131860,8826,"<div style=""font-size:20px;""><p>How likely is it for someone to wrap a present using a dress?</p></div>",50,12,67,wrap,wrapping,a present,using,wrapping a present using,Could someone wrap a present using,[NP] wrapped a present using,paper,a dress,ketchup,gossip,critical,html-slider-response,0.5386339036811374,improbable,How likely is it for someone to wrap a present using a dress?,session-65d665f21a7eb,67_improbable,-0.5908592692137828,1.8163720467900109,-0.4909719464502791
anon_subject_45,65d4fc29515df31cd1044a85,65d664954d11b0c9c36f1cef,29,0.0-1.0-0.28,139868,8006,"<div style=""font-size:20px;""><p>How likely is it for someone to pop a balloon using a thumbtack?</p></div>",50,86,49,pop,popping,a balloon,using,popping a balloon using,Could someone pop a balloon using,[NP] popped a balloon using,a thumbtack,a spear,cotton balls,a story,critical,html-slider-response,0.5386339036811374,probable,How likely is it for someone to pop a balloon using a thumbtack?,session-65d665f21a7eb,49_probable,1.4032445120697667,1.4673316740941427,1.2545563188980018
anon_subject_45,65d4fc29515df31cd1044a85,65d664954d11b0c9c36f1cef,30,0.0-1.0-0.29,144366,4496,"<div style=""font-size:20px;""><p>How likely is it for someone to unlock a door using a key?</p></div>",50,100,64,unlock,unlocking,a door,using,unlocking a door using,Could someone unlock a door using,[NP] unlocked a door using,a key,a screwdriver,a marshmallow,a lie,critical,html-slider-response,0.5386339036811374,probable,How likely is it for someone to unlock a door using a key?,session-65d665f21a7eb,64_probable,1.4276385525981075,-0.026731384640610475,1.5847913961260551
anon_subject_45,65d4fc29515df31cd1044a85,65d664954d11b0c9c36f1cef,31,0.0-1.0-0.30,147353,2985,"<div style=""font-size:20px;""><p>How likely is it for someone to pave a road using happiness?</p></div>",50,1,46,pave,paving,a road,using,paving a road using,Could someone pave a road using,[NP] paved a road using,cement,seashells,a comet,happiness,critical,html-slider-response,0.5386339036811374,inconceivable,How likely is it for someone to pave a road using happiness?,session-65d665f21a7eb,46_inconceivable,-0.5771113045853039,-0.6699021201814116,-0.7504423642723208
anon_subject_45,65d4fc29515df31cd1044a85,65d664954d11b0c9c36f1cef,32,0.0-1.0-0.31,151125,3770,"<div style=""font-size:20px;""><p>How likely is it for someone to lift a box using foam?</p></div>",50,0,38,lift,lifting,a box,using,lifting a box using,Could someone lift a box using,[NP] lifted a box using,a forklift,a pulley,foam,an emotion,critical,html-slider-response,0.5386339036811374,impossible,How likely is it for someone to lift a box using foam?,session-65d665f21a7eb,38_impossible,-0.8773951723509325,-0.3357598121737816,-0.7740305840743247
anon_subject_45,65d4fc29515df31cd1044a85,65d664954d11b0c9c36f1cef,33,0.0-1.0-0.32,153875,2749,"<div style=""font-size:20px;""><p>How likely is it for someone to fill a bucket with buildings?</p></div>",50,0,33,fill,filling,a bucket,with,filling a bucket with,Could someone fill a bucket with,[NP] filled a bucket with,sand,acorns,buildings,time,critical,html-slider-response,0.5386339036811374,impossible,How likely is it for someone to fill a bucket with buildings?,session-65d665f21a7eb,33_impossible,-1.0165358443361172,-0.7703576420792468,-0.7740305840743247
anon_subject_45,65d4fc29515df31cd1044a85,65d664954d11b0c9c36f1cef,34,0.0-1.0-0.33,157610,3734,"<div style=""font-size:20px;""><p>How likely is it for someone to close a jacket using a word?</p></div>",50,0,14,close,closing,a jacket,using,closing a jacket using,Could someone close a jacket using,[NP] closed a jacket using,a zipper,glue,fog,a word,critical,html-slider-response,0.5386339036811374,inconceivable,How likely is it for someone to close a jacket using a word?,session-65d665f21a7eb,14_inconceivable,-0.9164059898600344,-0.3510835358531124,-0.7740305840743247
anon_subject_45,65d4fc29515df31cd1044a85,65d664954d11b0c9c36f1cef,35,0.0-1.0-0.34,160021,2401,"<div style=""font-size:20px;""><p>How likely is it for someone to smash a pumpkin using a number?</p></div>",50,0,55,smash,smashing,a pumpkin,using,smashing a pumpkin using,Could someone smash a pumpkin using,[NP] smashed a pumpkin using,a hammer,a boulder,a leaf,a number,critical,html-slider-response,0.5386339036811374,inconceivable,How likely is it for someone to smash a pumpkin using a number?,session-65d665f21a7eb,55_inconceivable,-0.8698822198754079,-0.9184869709794445,-0.7740305840743247
anon_subject_45,65d4fc29515df31cd1044a85,65d664954d11b0c9c36f1cef,36,0.0-1.0-0.35,163608,3585,"<div style=""font-size:20px;""><p>How likely is it for someone to write a letter using a stylus?</p></div>",50,76,68,write,writing,a letter,using,writing a letter using,Could someone write a letter using,[NP] wrote a letter using,a pen,a stylus,a snowflake,a marathon,critical,html-slider-response,0.5386339036811374,improbable,How likely is it for someone to write a letter using a stylus?,session-65d665f21a7eb,68_improbable,0.7695823180469905,-0.41450672552589823,1.018674120877964
anon_subject_45,65d4fc29515df31cd1044a85,65d664954d11b0c9c36f1cef,37,0.0-1.0-0.36,172409,8800,"<div style=""font-size:20px;""><p>How likely is it for someone to dry laundry using a fan?</p></div>",50,35,30,dry,drying,laundry,using,drying laundry using,Could someone dry laundry using,[NP] dried laundry using,a clothesline,a fan,juice,courage,critical,html-slider-response,0.5386339036811374,improbable,How likely is it for someone to dry laundry using a fan?,session-65d665f21a7eb,30_improbable,0.15020416959575578,1.8053049130216052,0.05155710899580824
anon_subject_45,65d4fc29515df31cd1044a85,65d664954d11b0c9c36f1cef,38,0.0-1.0-0.37,182960,10549,"<div style=""font-size:20px;""><p>How likely is it for someone to enter a room through a wall?</p></div>",50,19,32,enter,entering,a room,through,entering a room through,Could someone enter a room through,[NP] entered a room through,a door,a window,a wall,a theory,critical,html-slider-response,0.5386339036811374,impossible,How likely is it for someone to enter a room through a wall?,session-65d665f21a7eb,32_impossible,-0.6150078910251936,2.5497824884424265,-0.3258544078362525
anon_subject_45,65d4fc29515df31cd1044a85,65d664954d11b0c9c36f1cef,39,0.0-1.0-0.38,185424,2464,"<div style=""font-size:20px;""><p>How likely is it for someone to cover a window using a chant?</p></div>",50,0,18,cover,covering,a window,using,covering a window using,Could someone cover a window using,[NP] covered a window using,curtains,sheets,a hair,a chant,critical,html-slider-response,0.5386339036811374,inconceivable,How likely is it for someone to cover a window using a chant?,session-65d665f21a7eb,18_inconceivable,-1.0541756498647303,-0.8916704545406157,-0.7740305840743247
anon_subject_45,65d4fc29515df31cd1044a85,65d664954d11b0c9c36f1cef,40,0.0-1.0-0.39,188306,2881,"<div style=""font-size:20px;""><p>How likely is it for someone to start a fire using kindling?</p></div>",50,100,59,start,starting,a fire,using,starting a fire using,Could someone start a fire using,[NP] started a fire using,kindling,furniture,milk,humor,critical,html-slider-response,0.5386339036811374,probable,How likely is it for someone to start a fire using kindling?,session-65d665f21a7eb,59_probable,1.4291114690525724,-0.7141706552550339,1.5847913961260551
anon_subject_45,65d4fc29515df31cd1044a85,65d664954d11b0c9c36f1cef,41,0.0-1.0-0.40,193016,4708,"<div style=""font-size:20px;""><p>How likely is it for someone to paint a wall using a bathtub?</p></div>",50,0,45,paint,painting,a wall,using,painting a wall using,Could someone paint a wall using,[NP] painted a wall using,a brush,a mop,a bathtub,a whisper,critical,html-slider-response,0.5386339036811374,impossible,How likely is it for someone to paint a wall using a bathtub?,session-65d665f21a7eb,45_impossible,-0.6704395298225231,0.06350832147100424,-0.7740305840743247
anon_subject_45,65d4fc29515df31cd1044a85,65d664954d11b0c9c36f1cef,42,0.0-1.0-0.41,196025,3008,"<div style=""font-size:20px;""><p>How likely is it for someone to dry their hands using a towel?</p></div>",50,100,29,dry,drying,[POSS] hands,using,drying [POSS] hands using,Could someone dry [POSS] hands using,[NP] dried [POSS] hands using,a towel,a sweater,a liquid,freedom,critical,html-slider-response,0.5386339036811374,probable,How likely is it for someone to dry their hands using a towel?,session-65d665f21a7eb,29_probable,1.176986249658795,-0.6601119633862835,1.5847913961260551
anon_subject_45,65d4fc29515df31cd1044a85,65d664954d11b0c9c36f1cef,43,0.0-1.0-0.42,202146,6118,"<div style=""font-size:20px;""><p>How likely is it for someone to build a house out of brick?</p></div>",50,97,3,build,building,a house,out of,building a house out of,Could someone build a house out of,[NP] built a house out of,brick,grass,gas,language,critical,html-slider-response,0.5386339036811374,probable,How likely is it for someone to build a house out of brick?,session-65d665f21a7eb,3_probable,1.5354764458744872,0.6636874989114606,1.5140267367200437
anon_subject_45,65d4fc29515df31cd1044a85,65d664954d11b0c9c36f1cef,44,0.0-1.0-0.43,205475,3328,"<div style=""font-size:20px;""><p>How likely is it for someone to chop a carrot using a knife?</p></div>",50,100,10,chop,chopping,a carrot,using,chopping a carrot using,Could someone chop a carrot using,[NP] chopped a carrot using,a knife,a sword,a rag,a color,critical,html-slider-response,0.5386339036811374,probable,How likely is it for someone to chop a carrot using a knife?,session-65d665f21a7eb,10_probable,1.7173388475199514,-0.5239010862366764,1.5847913961260551
anon_subject_45,65d4fc29515df31cd1044a85,65d664954d11b0c9c36f1cef,45,0.0-1.0-0.44,208233,2756,"<div style=""font-size:20px;""><p>How likely is it for someone to rinse fruit using a sink?</p></div>",50,100,51,rinse,rinsing,fruit,using,rinsing fruit using,Could someone rinse fruit using,[NP] rinsed fruit using,a sink,a hose,a clock,a giggle,critical,html-slider-response,0.5386339036811374,probable,How likely is it for someone to rinse fruit using a sink?,session-65d665f21a7eb,51_probable,1.3859205061874467,-0.7673780291415991,1.5847913961260551
anon_subject_45,65d4fc29515df31cd1044a85,65d664954d11b0c9c36f1cef,46,0.0-1.0-0.45,213191,4956,"<div style=""font-size:20px;""><p>How likely is it for someone to melt a chocolate bar using a stove?</p></div>",50,100,42,melt,melting,a chocolate bar,using,melting a chocolate bar using,Could someone melt a chocolate bar using,[NP] melted a chocolate bar using,a stove,a radiator,a napkin,a promise,critical,html-slider-response,0.5386339036811374,probable,How likely is it for someone to melt a chocolate bar using a stove?,session-65d665f21a7eb,42_probable,1.776424587814848,0.16907175126194976,1.5847913961260551
anon_subject_45,65d4fc29515df31cd1044a85,65d664954d11b0c9c36f1cef,47,0.0-1.0-0.46,218960,5767,"<div style=""font-size:20px;""><p>How likely is it for someone to sew a shirt using thunder?</p></div>",50,0,52,sew,sewing,a shirt,using,sewing a shirt using,Could someone sew a shirt using,[NP] sewed a shirt using,a needle,a toothpick,a potato,thunder,critical,html-slider-response,0.5386339036811374,inconceivable,How likely is it for someone to sew a shirt using thunder?,session-65d665f21a7eb,52_inconceivable,-0.6430626892616605,0.5142811930379853,-0.7740305840743247
anon_subject_45,65d4fc29515df31cd1044a85,65d664954d11b0c9c36f1cef,48,0.0-1.0-0.47,221103,2141,"<div style=""font-size:20px;""><p>How likely is it for someone to catch a fish in a puddle?</p></div>",50,0,8,catch,catching,a fish,in,catching a fish in,Could someone catch a fish in,[NP] caught a fish in,a lake,a puddle,a raindrop,an exclamation,critical,html-slider-response,0.5386339036811374,improbable,How likely is it for someone to catch a fish in a puddle?,session-65d665f21a7eb,8_improbable,-0.6521139566667958,-1.0291583086635003,-0.7740305840743247
anon_subject_45,65d4fc29515df31cd1044a85,65d664954d11b0c9c36f1cef,49,0.0-1.0-0.48,224370,3265,"<div style=""font-size:20px;""><p>How likely is it for someone to cool a room using a taste?</p></div>",50,0,17,cool,cooling,a room,using,cooling a room using,Could someone cool a room using,[NP] cooled a room using,a fan,shades,a heater,a taste,critical,html-slider-response,0.5386339036811374,inconceivable,How likely is it for someone to cool a room using a taste?,session-65d665f21a7eb,17_inconceivable,-1.003072177641852,-0.5507176026755054,-0.7740305840743247
anon_subject_45,65d4fc29515df31cd1044a85,65d664954d11b0c9c36f1cef,50,0.0-1.0-0.49,228255,3882,"<div style=""font-size:20px;""><p>How likely is it for someone to construct a tower out of bubbles?</p></div>",50,0,15,construct,constructing,a tower,out of,constructing a tower out of,Could someone construct a tower out of,[NP] constructed a tower out of,blocks,bubbles,sparks,seasons,critical,html-slider-response,0.5386339036811374,improbable,How likely is it for someone to construct a tower out of bubbles?,session-65d665f21a7eb,15_improbable,-0.7444766504669948,-0.28808600517141913,-0.7740305840743247
anon_subject_45,65d4fc29515df31cd1044a85,65d664954d11b0c9c36f1cef,51,0.0-1.0-0.50,231852,3594,"<div style=""font-size:20px;""><p>How likely is it for someone to dig a hole using a yawn?</p></div>",50,0,24,dig,digging,a hole,using,digging a hole using,Could someone dig a hole using,[NP] dug a hole using,a shovel,a spatula,dirt,a yawn,critical,html-slider-response,0.5386339036811374,inconceivable,How likely is it for someone to dig a hole using a yawn?,session-65d665f21a7eb,24_inconceivable,-0.7827002019791542,-0.4106757946060655,-0.7740305840743247
anon_subject_45,65d4fc29515df31cd1044a85,65d664954d11b0c9c36f1cef,52,0.0-1.0-0.51,236695,4841,"<div style=""font-size:20px;""><p>How likely is it for someone to craft a bowl out of mud?</p></div>",50,58,19,craft,crafting,a bowl,out of,crafting a bowl out of,Could someone craft a bowl out of,[NP] crafted a bowl out of,clay,mud,smoke,math,critical,html-slider-response,0.5386339036811374,improbable,How likely is it for someone to craft a bowl out of mud?,session-65d665f21a7eb,19_improbable,0.33111317644079347,0.1201209672863097,0.5940861644418955
anon_subject_45,65d4fc29515df31cd1044a85,65d664954d11b0c9c36f1cef,53,0.0-1.0-0.52,248938,12241,"<div style=""font-size:20px;""><p>How likely is it for someone to squish a blueberry using their finger?</p></div>",50,99,58,squish,squishing,a blueberry,using,squishing a blueberry using,Could someone squish a blueberry using,[NP] squished a blueberry using,[POSS] finger,[POSS] nose,[POSS] breath,a sight,critical,html-slider-response,0.5386339036811374,probable,How likely is it for someone to squish a blueberry using their finger?,session-65d665f21a7eb,58_probable,1.690045246280027,3.269997501370974,1.5612031763240513
anon_subject_45,65d4fc29515df31cd1044a85,65d664954d11b0c9c36f1cef,54,0.0-1.0-0.53,252504,3563,"<div style=""font-size:20px;""><p>How likely is it for someone to build a bridge out of soup?</p></div>",50,1,4,build,building,a bridge,out of,building a bridge out of,Could someone build a bridge out of,[NP] built a bridge out of,steel,plastic,soup,dance,critical,html-slider-response,0.5386339036811374,impossible,How likely is it for someone to build a bridge out of soup?,session-65d665f21a7eb,4_impossible,-0.9408877514249471,-0.4238712233299337,-0.7504423642723208
anon_subject_45,65d4fc29515df31cd1044a85,65d664954d11b0c9c36f1cef,55,0.0-1.0-0.54,255524,3018,"<div style=""font-size:20px;""><p>How likely is it for someone to chill a drink using ice?</p></div>",50,99,9,chill,chilling,a drink,using,chilling a drink using,Could someone chill a drink using,[NP] chilled a drink using,ice,snow,fire,yesterday,critical,html-slider-response,0.5386339036811374,probable,How likely is it for someone to chill a drink using ice?,session-65d665f21a7eb,9_probable,1.3320039788419735,-0.6558553734753584,1.5612031763240513
anon_subject_45,65d4fc29515df31cd1044a85,65d664954d11b0c9c36f1cef,56,0.0-1.0-0.55,259293,3767,"<div style=""font-size:20px;""><p>How likely is it for someone to carry groceries inside a backpack?</p></div>",50,65,6,carry,carrying,groceries,inside,carrying groceries inside,Could someone carry groceries inside,[NP] carried groceries inside,a tote bag,a backpack,a tornado,a law,critical,html-slider-response,0.5386339036811374,improbable,How likely is it for someone to carry groceries inside a backpack?,session-65d665f21a7eb,6_improbable,0.30041322303176854,-0.3370367891470592,0.7592037030559221
anon_subject_45,65d4fc29515df31cd1044a85,65d664954d11b0c9c36f1cef,57,0.0-1.0-0.56,265600,6305,"<div style=""font-size:20px;""><p>How likely is it for someone to polish jewelry using a shirt?</p></div>",50,25,48,polish,polishing,jewelry,using,polishing jewelry using,Could someone polish jewelry using,[NP] polished jewelry using,a cloth,a shirt,a chainsaw,music,critical,html-slider-response,0.5386339036811374,improbable,How likely is it for someone to polish jewelry using a shirt?,session-65d665f21a7eb,48_improbable,-0.2583978186551785,0.7432857302457623,-0.18432508902422973
anon_subject_45,65d4fc29515df31cd1044a85,65d664954d11b0c9c36f1cef,58,0.0-1.0-0.57,275842,10240,"<div style=""font-size:20px;""><p>How likely is it for someone to cut cardboard using a scalpel?</p></div>",50,77,22,cut,cutting,cardboard,using,cutting cardboard using,Could someone cut cardboard using,[NP] cut cardboard using,scissors,a scalpel,fur,a snore,critical,html-slider-response,0.5386339036811374,improbable,How likely is it for someone to cut cardboard using a scalpel?,session-65d665f21a7eb,22_improbable,0.8251692367579182,2.418253860194837,1.0422623406799676
anon_subject_45,65d4fc29515df31cd1044a85,65d664954d11b0c9c36f1cef,59,0.0-1.0-0.58,278799,2955,"<div style=""font-size:20px;""><p>How likely is it for someone to pluck a hair using tongs?</p></div>",50,0,47,pluck,plucking,a hair,using,plucking a hair using,Could someone pluck a hair using,[NP] plucked a hair using,tweezers,tongs,a spoon,sympathy,critical,html-slider-response,0.5386339036811374,improbable,How likely is it for someone to pluck a hair using tongs?,session-65d665f21a7eb,47_improbable,-0.8358550660588516,-0.6826718899141873,-0.7740305840743247
anon_subject_45,65d4fc29515df31cd1044a85,65d664954d11b0c9c36f1cef,60,0.0-1.0-0.59,282117,3316,"<div style=""font-size:20px;""><p>How likely is it for someone to dip a biscuit into wine?</p></div>",50,0,25,dip,dipping,a biscuit,into,dipping a biscuit into,Could someone dip a biscuit into,[NP] dipped a biscuit into,coffee,wine,a floor,a myth,critical,html-slider-response,0.5386339036811374,improbable,How likely is it for someone to dip a biscuit into wine?,session-65d665f21a7eb,25_improbable,-0.8790475189442455,-0.5290089941297867,-0.7740305840743247
anon_subject_45,65d4fc29515df31cd1044a85,65d664954d11b0c9c36f1cef,61,0.0-1.0-0.60,284490,2371,"<div style=""font-size:20px;""><p>How likely is it for someone to boil water using justice?</p></div>",50,0,1,boil,boiling,water,using,boiling water using,Could someone boil water using,[NP] boiled water using,a kettle,a microwave,a refrigerator,justice,critical,html-slider-response,0.5386339036811374,inconceivable,How likely is it for someone to boil water using justice?,session-65d665f21a7eb,1_inconceivable,-1.1647111300280606,-0.9312567407122202,-0.7740305840743247
anon_subject_45,65d4fc29515df31cd1044a85,65d664954d11b0c9c36f1cef,62,0.0-1.0-0.61,287468,2977,"<div style=""font-size:20px;""><p>How likely is it for someone to hide a gift inside a gasp?</p></div>",50,0,37,hide,hiding,a gift,inside,hiding a gift inside,Could someone hide a gift inside,[NP] hid a gift inside,a closet,a forest,a cloud,a gasp,critical,html-slider-response,0.5386339036811374,inconceivable,How likely is it for someone to hide a gift inside a gasp?,session-65d665f21a7eb,37_inconceivable,-0.7336261042164889,-0.6733073921101518,-0.7740305840743247
anon_subject_45,65d4fc29515df31cd1044a85,65d664954d11b0c9c36f1cef,63,0.0-1.0-0.62,295917,8447,"<div style=""font-size:20px;""><p>How likely is it for someone to write an equation on a billboard?</p></div>",50,42,69,write,writing,an equation,on,writing an equation on,Could someone write an equation on,[NP] wrote an equation on,a chalkboard,a billboard,an atom,a scream,critical,html-slider-response,0.5386339036811374,improbable,How likely is it for someone to write an equation on a billboard?,session-65d665f21a7eb,69_improbable,-0.12575869573247153,1.655047289165945,0.21667464760983482
anon_subject_45,65d4fc29515df31cd1044a85,65d664954d11b0c9c36f1cef,64,0.0-1.0-0.63,301064,5146,"<div style=""font-size:20px;""><p>How likely is it for someone to call a friend using a laptop?</p></div>",50,74,5,call,calling,a friend,using,calling a friend using,Could someone call a friend using,[NP] called a friend using,a phone,a laptop,a sandwich,mass,critical,html-slider-response,0.5386339036811374,improbable,How likely is it for someone to call a friend using a laptop?,session-65d665f21a7eb,5_improbable,0.5924089229327665,0.24994695956952898,0.9714976812739563
anon_subject_45,65d4fc29515df31cd1044a85,65d664954d11b0c9c36f1cef,65,0.0-1.0-0.64,306585,5519,"<div style=""font-size:20px;""><p>How likely is it for someone to clean a carpet using a week?</p></div>",50,0,12,clean,cleaning,a carpet,using,cleaning a carpet using,Could someone clean a carpet using,[NP] cleaned a carpet using,a vacuum,a hat,a crayon,a week,critical,html-slider-response,0.5386339036811374,inconceivable,How likely is it for someone to clean a carpet using a week?,session-65d665f21a7eb,12_inconceivable,-0.5957388635112354,0.4087177632470398,-0.7740305840743247
anon_subject_45,65d4fc29515df31cd1044a85,65d664954d11b0c9c36f1cef,66,0.0-1.0-0.65,309251,2664,"<div style=""font-size:20px;""><p>How likely is it for someone to take a vacation to the sun?</p></div>",50,0,61,take,taking,a vacation,to,taking a vacation to,Could someone take a vacation to,[NP] took a vacation to,the beach,the desert,the sun,a verb,critical,html-slider-response,0.5386339036811374,impossible,How likely is it for someone to take a vacation to the sun?,session-65d665f21a7eb,61_impossible,-0.9860620441448735,-0.8065386563221112,-0.7740305840743247
anon_subject_45,65d4fc29515df31cd1044a85,65d664954d11b0c9c36f1cef,67,0.0-1.0-0.66,313232,3979,"<div style=""font-size:20px;""><p>How likely is it for someone to make a smoothie using a blender?</p></div>",50,100,41,make,making,a smoothie,using,making a smoothie using,Could someone make a smoothie using,[NP] made a smoothie using,a blender,a whisk,wind,decades,critical,html-slider-response,0.5386339036811374,probable,How likely is it for someone to make a smoothie using a blender?,session-65d665f21a7eb,41_probable,1.7333619830134446,-0.24679708303544448,1.5847913961260551
anon_subject_45,65d4fc29515df31cd1044a85,65d664954d11b0c9c36f1cef,68,0.0-1.0-0.67,320633,7399,"<div style=""font-size:20px;""><p>How likely is it for someone to wash their hair using a rainbow?</p></div>",50,0,65,wash,washing,[POSS] hair,using,washing [POSS] hair using,Could someone wash [POSS] hair using,[NP] washed [POSS] hair using,shampoo,detergent,a rainbow,applause,critical,html-slider-response,0.5386339036811374,impossible,How likely is it for someone to wash their hair using a rainbow?,session-65d665f21a7eb,65_impossible,-0.7723898437895249,1.2089566665009817,-0.7740305840743247
anon_subject_45,65d4fc29515df31cd1044a85,65d664954d11b0c9c36f1cef,69,0.0-1.0-0.68,322766,2131,"<div style=""font-size:20px;""><p>How likely is it for someone to pack a suit inside a pocket?</p></div>",50,0,44,pack,packing,a suit,inside,packing a suit inside,Could someone pack a suit inside,[NP] packed a suit inside,a suitcase,a pocket,a raspberry,a groan,critical,html-slider-response,0.5386339036811374,improbable,How likely is it for someone to pack a suit inside a pocket?,session-65d665f21a7eb,44_improbable,-0.6107181368278485,-1.0334148985744256,-0.7740305840743247
anon_subject_45,65d4fc29515df31cd1044a85,65d664954d11b0c9c36f1cef,70,0.0-1.0-0.69,325504,2737,"<div style=""font-size:20px;""><p>How likely is it for someone to split a log using an axe?</p></div>",50,100,56,split,splitting,a log,using,splitting a log using,Could someone split a log using,[NP] split a log using,an axe,a saw,a feather,a gasp,critical,html-slider-response,0.5386339036811374,probable,How likely is it for someone to split a log using an axe?,session-65d665f21a7eb,56_probable,0.9025787130155554,-0.7754655499723571,1.5847913961260551
anon_subject_21,65d4fc29515df31cd1044a85,65d6673b50cd32b3cf075842,1,0.0-1.0-0.0,16245,3979,"<div style=""font-size:20px;""><p>How likely is it for someone to cut cardboard using a snore?</p></div>",50,0,22,cut,cutting,cardboard,using,cutting cardboard using,Could someone cut cardboard using,[NP] cut cardboard using,scissors,a scalpel,fur,a snore,critical,html-slider-response,0.8816460076307789,inconceivable,How likely is it for someone to cut cardboard using a snore?,session-65d6684c39ae7,22_inconceivable,-0.9498384772030999,1.0007432115989008,-0.7942009410945894
anon_subject_21,65d4fc29515df31cd1044a85,65d6673b50cd32b3cf075842,2,0.0-1.0-0.1,21446,5198,"<div style=""font-size:20px;""><p>How likely is it for someone to cook dinner out of insects?</p></div>",50,50,16,cook,cooking,dinner,out of,cooking dinner out of,Could someone cook dinner out of,[NP] cooked dinner out of,pasta,insects,the moon,thoughts,critical,html-slider-response,0.8816460076307789,improbable,How likely is it for someone to cook dinner out of insects?,session-65d6684c39ae7,16_improbable,0.37478536947130164,2.8095042682537947,0.39016347894421016
anon_subject_21,65d4fc29515df31cd1044a85,65d6673b50cd32b3cf075842,3,0.0-1.0-0.2,24029,2580,"<div style=""font-size:20px;""><p>How likely is it for someone to catch a fish in a raindrop?</p></div>",50,4,8,catch,catching,a fish,in,catching a fish in,Could someone catch a fish in,[NP] caught a fish in,a lake,a puddle,a raindrop,an exclamation,critical,html-slider-response,0.8816460076307789,impossible,How likely is it for someone to catch a fish in a raindrop?,session-65d6684c39ae7,8_impossible,-0.5456020104112191,-1.0751031528475283,-0.6994517874914854
anon_subject_21,65d4fc29515df31cd1044a85,65d6673b50cd32b3cf075842,4,0.0-1.0-0.3,27329,3298,"<div style=""font-size:20px;""><p>How likely is it for someone to cover a window using a chant?</p></div>",50,0,18,cover,covering,a window,using,covering a window using,Could someone cover a window using,[NP] covered a window using,curtains,sheets,a hair,a chant,critical,html-slider-response,0.8816460076307789,inconceivable,How likely is it for someone to cover a window using a chant?,session-65d6684c39ae7,18_inconceivable,-1.0541756498647303,-0.009729536212406027,-0.7942009410945894
anon_subject_21,65d4fc29515df31cd1044a85,65d6673b50cd32b3cf075842,5,0.0-1.0-0.4,31296,3965,"<div style=""font-size:20px;""><p>How likely is it for someone to cut grass using a popsicle?</p></div>",50,2,21,cut,cutting,grass,using,cutting grass using,Could someone cut grass using,[NP] cut grass using,a lawnmower,a scythe,a popsicle,an essay,critical,html-slider-response,0.8816460076307789,impossible,How likely is it for someone to cut grass using a popsicle?,session-65d6684c39ae7,21_impossible,-0.8552245043606042,0.9799699098817813,-0.7468263642930374
anon_subject_21,65d4fc29515df31cd1044a85,65d6673b50cd32b3cf075842,6,0.0-1.0-0.5,35545,4247,"<div style=""font-size:20px;""><p>How likely is it for someone to polish jewelry using a shirt?</p></div>",50,50,48,polish,polishing,jewelry,using,polishing jewelry using,Could someone polish jewelry using,[NP] polished jewelry using,a cloth,a shirt,a chainsaw,music,critical,html-slider-response,0.8816460076307789,improbable,How likely is it for someone to polish jewelry using a shirt?,session-65d6684c39ae7,48_improbable,0.3592862100026186,1.398403558755186,0.39016347894421016
anon_subject_21,65d4fc29515df31cd1044a85,65d6673b50cd32b3cf075842,7,0.0-1.0-0.6,38678,3131,"<div style=""font-size:20px;""><p>How likely is it for someone to climb a tree using oil?</p></div>",50,1,13,climb,climbing,a tree,using,climbing a tree using,Could someone climb a tree using,[NP] climbed a tree using,a ladder,a rope,oil,a poem,critical,html-slider-response,0.8816460076307789,impossible,How likely is it for someone to climb a tree using oil?,session-65d6684c39ae7,13_impossible,-1.1106423981060425,-0.25752534955233003,-0.7705136526938134
anon_subject_21,65d4fc29515df31cd1044a85,65d6673b50cd32b3cf075842,8,0.0-1.0-0.7,42529,3848,"<div style=""font-size:20px;""><p>How likely is it for someone to light a candle using surprises?</p></div>",50,1,39,light,lighting,a candle,using,lighting a candle using,Could someone light a candle using,[NP] lit a candle using,a match,a blowtorch,yogurt,surprises,critical,html-slider-response,0.8816460076307789,inconceivable,How likely is it for someone to light a candle using surprises?,session-65d6684c39ae7,39_inconceivable,-0.699459972992637,0.8063644598172837,-0.7705136526938134
anon_subject_21,65d4fc29515df31cd1044a85,65d6673b50cd32b3cf075842,9,0.0-1.0-0.8,45262,2731,"<div style=""font-size:20px;""><p>How likely is it for someone to rinse fruit using a giggle?</p></div>",50,2,51,rinse,rinsing,fruit,using,rinsing fruit using,Could someone rinse fruit using,[NP] rinsed fruit using,a sink,a hose,a clock,a giggle,critical,html-slider-response,0.8816460076307789,inconceivable,How likely is it for someone to rinse fruit using a giggle?,session-65d6684c39ae7,51_inconceivable,-0.8575583442646474,-0.8510482557557407,-0.7468263642930374
anon_subject_21,65d4fc29515df31cd1044a85,65d6673b50cd32b3cf075842,10,0.0-1.0-0.9,48678,3414,"<div style=""font-size:20px;""><p>How likely is it for someone to boil water using a microwave?</p></div>",50,100,1,boil,boiling,water,using,boiling water using,Could someone boil water using,[NP] boiled water using,a kettle,a microwave,a refrigerator,justice,critical,html-slider-response,0.8816460076307789,improbable,How likely is it for someone to boil water using a microwave?,session-65d6684c39ae7,1_improbable,1.0742392572365518,0.1623921065865831,1.5745278989830096
anon_subject_21,65d4fc29515df31cd1044a85,65d6673b50cd32b3cf075842,11,0.0-1.0-0.10,52062,3381,"<div style=""font-size:20px;""><p>How likely is it for someone to remove a stain using dirt?</p></div>",50,9,50,remove,removing,a stain,using,removing a stain using,Could someone remove a stain using,[NP] removed a stain using,bleach,vinegar,dirt,truth,critical,html-slider-response,0.8816460076307789,impossible,How likely is it for someone to remove a stain using dirt?,session-65d6684c39ae7,50_impossible,-1.1071743327807073,0.1134264668248017,-0.5810153454876055
anon_subject_21,65d4fc29515df31cd1044a85,65d6673b50cd32b3cf075842,12,0.0-1.0-0.11,54979,2914,"<div style=""font-size:20px;""><p>How likely is it for someone to open a jar using their feet?</p></div>",50,17,43,open,opening,a jar,using,opening a jar using,Could someone open a jar using,[NP] opened a jar using,[POSS] hands,[POSS] feet,[POSS] mind,an opinion,critical,html-slider-response,0.8816460076307789,improbable,How likely is it for someone to open a jar using their feet?,session-65d6684c39ae7,43_improbable,-0.3466996941912182,-0.5795115261676803,-0.39151703828139756
anon_subject_21,65d4fc29515df31cd1044a85,65d6673b50cd32b3cf075842,13,0.0-1.0-0.12,57777,2795,"<div style=""font-size:20px;""><p>How likely is it for someone to split a log using a feather?</p></div>",50,0,56,split,splitting,a log,using,splitting a log using,Could someone split a log using,[NP] split a log using,an axe,a saw,a feather,a gasp,critical,html-slider-response,0.8816460076307789,impossible,How likely is it for someone to split a log using a feather?,session-65d6684c39ae7,56_impossible,-1.1669747234730834,-0.756084590763195,-0.7942009410945894
anon_subject_21,65d4fc29515df31cd1044a85,65d6673b50cd32b3cf075842,14,0.0-1.0-0.13,61913,4134,"<div style=""font-size:20px;""><p>How likely is it for someone to build a bridge out of plastic?</p></div>",50,38,4,build,building,a bridge,out of,building a bridge out of,Could someone build a bridge out of,[NP] built a bridge out of,steel,plastic,soup,dance,critical,html-slider-response,0.8816460076307789,improbable,How likely is it for someone to build a bridge out of plastic?,session-65d6684c39ae7,4_improbable,-0.07233912956474904,1.2307333377527223,0.10591601813489829
anon_subject_21,65d4fc29515df31cd1044a85,65d6673b50cd32b3cf075842,15,0.0-1.0-0.14,64694,2779,"<div style=""font-size:20px;""><p>How likely is it for someone to close a jacket using a word?</p></div>",50,0,14,close,closing,a jacket,using,closing a jacket using,Could someone close a jacket using,[NP] closed a jacket using,a zipper,glue,fog,a word,critical,html-slider-response,0.8816460076307789,inconceivable,How likely is it for someone to close a jacket using a word?,session-65d6684c39ae7,14_inconceivable,-0.9164059898600344,-0.7798255070113315,-0.7942009410945894
anon_subject_21,65d4fc29515df31cd1044a85,65d6673b50cd32b3cf075842,16,0.0-1.0-0.15,68011,3316,"<div style=""font-size:20px;""><p>How likely is it for someone to take a vacation to the sun?</p></div>",50,0,61,take,taking,a vacation,to,taking a vacation to,Could someone take a vacation to,[NP] took a vacation to,the beach,the desert,the sun,a verb,critical,html-slider-response,0.8816460076307789,impossible,How likely is it for someone to take a vacation to the sun?,session-65d6684c39ae7,61_impossible,-0.9860620441448735,0.016978994566747455,-0.7942009410945894
anon_subject_21,65d4fc29515df31cd1044a85,65d6673b50cd32b3cf075842,17,0.0-1.0-0.16,70983,2969,"<div style=""font-size:20px;""><p>How likely is it for someone to construct a tower out of blocks?</p></div>",50,100,15,construct,constructing,a tower,out of,constructing a tower out of,Could someone construct a tower out of,[NP] constructed a tower out of,blocks,bubbles,sparks,seasons,critical,html-slider-response,0.8816460076307789,probable,How likely is it for someone to construct a tower out of blocks?,session-65d6684c39ae7,15_probable,1.9798964543039348,-0.49790212656471133,1.5745278989830096
anon_subject_21,65d4fc29515df31cd1044a85,65d6673b50cd32b3cf075842,18,0.0-1.0-0.17,74145,3160,"<div style=""font-size:20px;""><p>How likely is it for someone to call a friend using mass?</p></div>",50,0,5,call,calling,a friend,using,calling a friend using,Could someone call a friend using,[NP] called a friend using,a phone,a laptop,a sandwich,mass,critical,html-slider-response,0.8816460076307789,inconceivable,How likely is it for someone to call a friend using mass?,session-65d6684c39ae7,5_inconceivable,-1.0482445312972006,-0.21449493885258272,-0.7942009410945894
anon_subject_21,65d4fc29515df31cd1044a85,65d6673b50cd32b3cf075842,19,0.0-1.0-0.18,77279,3132,"<div style=""font-size:20px;""><p>How likely is it for someone to make a smoothie using a blender?</p></div>",50,100,41,make,making,a smoothie,using,making a smoothie using,Could someone make a smoothie using,[NP] made a smoothie using,a blender,a whisk,wind,decades,critical,html-slider-response,0.8816460076307789,probable,How likely is it for someone to make a smoothie using a blender?,session-65d6684c39ae7,41_probable,1.7333619830134446,-0.25604154228682147,1.5745278989830096
anon_subject_21,65d4fc29515df31cd1044a85,65d6673b50cd32b3cf075842,20,0.0-1.0-0.19,80544,3263,"<div style=""font-size:20px;""><p>How likely is it for someone to paint a wall using a mop?</p></div>",50,7,45,paint,painting,a wall,using,painting a wall using,Could someone paint a wall using,[NP] painted a wall using,a brush,a mop,a bathtub,a whisper,critical,html-slider-response,0.8816460076307789,improbable,How likely is it for someone to paint a wall using a mop?,session-65d6684c39ae7,45_improbable,-0.4906281616708885,-0.061662790505204464,-0.6283899222891575
anon_subject_21,65d4fc29515df31cd1044a85,65d6673b50cd32b3cf075842,21,0.0-1.0-0.20,83645,3099,"<div style=""font-size:20px;""><p>How likely is it for someone to clean a spill using a sponge?</p></div>",50,97,11,clean,cleaning,a spill,using,cleaning a spill using,Could someone clean a spill using,[NP] cleaned a spill using,a sponge,a scarf,mustard,a country,critical,html-slider-response,0.8816460076307789,probable,How likely is it for someone to clean a spill using a sponge?,session-65d6684c39ae7,11_probable,1.6092061051993372,-0.3050071820486029,1.5034660337806818
anon_subject_21,65d4fc29515df31cd1044a85,65d6673b50cd32b3cf075842,22,0.0-1.0-0.21,86813,3167,"<div style=""font-size:20px;""><p>How likely is it for someone to cool a room using a heater?</p></div>",50,0,17,cool,cooling,a room,using,cooling a room using,Could someone cool a room using,[NP] cooled a room using,a fan,shades,a heater,a taste,critical,html-slider-response,0.8816460076307789,impossible,How likely is it for someone to cool a room using a heater?,session-65d6684c39ae7,17_impossible,-1.003072177641852,-0.20410828799402303,-0.7942009410945894
anon_subject_21,65d4fc29515df31cd1044a85,65d6673b50cd32b3cf075842,23,0.0-1.0-0.22,89261,2446,"<div style=""font-size:20px;""><p>How likely is it for someone to eat soup using a spoon?</p></div>",50,100,31,eat,eating,soup,using,eating soup using,Could someone eat soup using,[NP] ate soup using,a spoon,a bucket,a sieve,history,critical,html-slider-response,0.8816460076307789,probable,How likely is it for someone to eat soup using a spoon?,session-65d6684c39ae7,31_probable,1.2571378521588434,-1.273933326425671,1.5745278989830096
anon_subject_21,65d4fc29515df31cd1044a85,65d6673b50cd32b3cf075842,24,0.0-1.0-0.23,91862,2598,"<div style=""font-size:20px;""><p>How likely is it for someone to hide a gift inside a gasp?</p></div>",50,0,37,hide,hiding,a gift,inside,hiding a gift inside,Could someone hide a gift inside,[NP] hid a gift inside,a closet,a forest,a cloud,a gasp,critical,html-slider-response,0.8816460076307789,inconceivable,How likely is it for someone to hide a gift inside a gasp?,session-65d6684c39ae7,37_inconceivable,-0.7336261042164889,-1.0483946220683749,-0.7942009410945894
anon_subject_21,65d4fc29515df31cd1044a85,65d6673b50cd32b3cf075842,25,0.0-1.0-0.24,94813,2949,"<div style=""font-size:20px;""><p>How likely is it for someone to wear shoes made of leather?</p></div>",50,99,66,wear,wearing,shoes,made of,wearing shoes made of,Could someone wear shoes made of,[NP] wore shoes made of,leather,wood,stars,traffic,critical,html-slider-response,0.8816460076307789,probable,How likely is it for someone to wear shoes made of leather?,session-65d6684c39ae7,66_probable,1.8359586319666936,-0.5275782718748819,1.5508406105822337
anon_subject_21,65d4fc29515df31cd1044a85,65d6673b50cd32b3cf075842,26,0.0-1.0-0.25,98629,3814,"<div style=""font-size:20px;""><p>How likely is it for someone to break a coconut using a pillow?</p></div>",50,0,2,break,breaking,a coconut,using,breaking a coconut using,Could someone break a coconut using,[NP] broke a coconut using,a rock,a table,a pillow,a texture,critical,html-slider-response,0.8816460076307789,impossible,How likely is it for someone to break a coconut using a pillow?,session-65d6684c39ae7,2_impossible,-0.7112125568262287,0.7559150127899938,-0.7942009410945894
anon_subject_21,65d4fc29515df31cd1044a85,65d6673b50cd32b3cf075842,27,0.0-1.0-0.26,102696,4065,"<div style=""font-size:20px;""><p>How likely is it for someone to carry groceries inside a tote bag?</p></div>",50,91,6,carry,carrying,groceries,inside,carrying groceries inside,Could someone carry groceries inside,[NP] carried groceries inside,a tote bag,a backpack,a tornado,a law,critical,html-slider-response,0.8816460076307789,probable,How likely is it for someone to carry groceries inside a tote bag?,session-65d6684c39ae7,6_probable,0.9385458863345447,1.1283506364326341,1.361342303376026
anon_subject_21,65d4fc29515df31cd1044a85,65d6673b50cd32b3cf075842,28,0.0-1.0-0.27,106378,3680,"<div style=""font-size:20px;""><p>How likely is it for someone to craft a bowl out of clay?</p></div>",50,93,19,craft,crafting,a bowl,out of,crafting a bowl out of,Could someone craft a bowl out of,[NP] crafted a bowl out of,clay,mud,smoke,math,critical,html-slider-response,0.8816460076307789,probable,How likely is it for someone to craft a bowl out of clay?,session-65d6684c39ae7,19_probable,1.149542637982303,0.5570848392118513,1.4087168801775778
anon_subject_21,65d4fc29515df31cd1044a85,65d6673b50cd32b3cf075842,29,0.0-1.0-0.28,109311,2932,"<div style=""font-size:20px;""><p>How likely is it for someone to fill a bucket with sand?</p></div>",50,91,33,fill,filling,a bucket,with,filling a bucket with,Could someone fill a bucket with,[NP] filled a bucket with,sand,acorns,buildings,time,critical,html-slider-response,0.8816460076307789,probable,How likely is it for someone to fill a bucket with sand?,session-65d6684c39ae7,33_probable,1.1724078810445424,-0.5528029953885268,1.361342303376026
anon_subject_21,65d4fc29515df31cd1044a85,65d6673b50cd32b3cf075842,30,0.0-1.0-0.29,113412,4099,"<div style=""font-size:20px;""><p>How likely is it for someone to dent a car with a dumbbell?</p></div>",50,50,23,dent,denting,a car,with,denting a car with,Could someone dent a car with,[NP] dented a car with,a baseball bat,a dumbbell,a breeze,a nap,critical,html-slider-response,0.8816460076307789,improbable,How likely is it for someone to dent a car with a dumbbell?,session-65d6684c39ae7,23_improbable,0.4258447842156492,1.178800083459924,0.39016347894421016
anon_subject_21,65d4fc29515df31cd1044a85,65d6673b50cd32b3cf075842,31,0.0-1.0-0.30,116114,2700,"<div style=""font-size:20px;""><p>How likely is it for someone to turn an apple into honesty?</p></div>",50,0,63,turn,turning,an apple,into,turning an apple into,Could someone turn an apple into,[NP] turned an apple into,a pie,a salad,a cherry,honesty,critical,html-slider-response,0.8816460076307789,inconceivable,How likely is it for someone to turn an apple into honesty?,session-65d6684c39ae7,63_inconceivable,-0.9495814865557626,-0.8970462809865051,-0.7942009410945894
anon_subject_21,65d4fc29515df31cd1044a85,65d6673b50cd32b3cf075842,32,0.0-1.0-0.31,119046,2930,"<div style=""font-size:20px;""><p>How likely is it for someone to smash a pumpkin using a number?</p></div>",50,0,55,smash,smashing,a pumpkin,using,smashing a pumpkin using,Could someone smash a pumpkin using,[NP] smashed a pumpkin using,a hammer,a boulder,a leaf,a number,critical,html-slider-response,0.8816460076307789,inconceivable,How likely is it for someone to smash a pumpkin using a number?,session-65d6684c39ae7,55_inconceivable,-0.8698822198754079,-0.5557706099195439,-0.7942009410945894
anon_subject_21,65d4fc29515df31cd1044a85,65d6673b50cd32b3cf075842,33,0.0-1.0-0.32,122497,3448,"<div style=""font-size:20px;""><p>How likely is it for someone to chop a carrot using a sword?</p></div>",50,19,10,chop,chopping,a carrot,using,chopping a carrot using,Could someone chop a carrot using,[NP] chopped a carrot using,a knife,a sword,a rag,a color,critical,html-slider-response,0.8816460076307789,improbable,How likely is it for someone to chop a carrot using a sword?,session-65d6684c39ae7,10_improbable,-0.2692999221046711,0.212841553613873,-0.34414246147984556
anon_subject_21,65d4fc29515df31cd1044a85,65d6673b50cd32b3cf075842,34,0.0-1.0-0.33,126262,3763,"<div style=""font-size:20px;""><p>How likely is it for someone to chill a drink using snow?</p></div>",50,67,9,chill,chilling,a drink,using,chilling a drink using,Could someone chill a drink using,[NP] chilled a drink using,ice,snow,fire,yesterday,critical,html-slider-response,0.8816460076307789,improbable,How likely is it for someone to chill a drink using snow?,session-65d6684c39ae7,9_improbable,0.5593135464245801,0.6802408422490589,0.7928473817574021
anon_subject_21,65d4fc29515df31cd1044a85,65d6673b50cd32b3cf075842,35,0.0-1.0-0.34,129480,3216,"<div style=""font-size:20px;""><p>How likely is it for someone to unlock a door using a lie?</p></div>",50,0,64,unlock,unlocking,a door,using,unlocking a door using,Could someone unlock a door using,[NP] unlocked a door using,a key,a screwdriver,a marshmallow,a lie,critical,html-slider-response,0.8816460076307789,inconceivable,How likely is it for someone to unlock a door using a lie?,session-65d6684c39ae7,64_inconceivable,-0.8765211666807879,-0.13140173198410524,-0.7942009410945894
anon_subject_21,65d4fc29515df31cd1044a85,65d6673b50cd32b3cf075842,36,0.0-1.0-0.35,132530,3047,"<div style=""font-size:20px;""><p>How likely is it for someone to carve a statue using a nail?</p></div>",50,9,7,carve,carving,a statue,using,carving a statue using,Could someone carve a statue using,[NP] carved a statue using,a chisel,a nail,a sock,laughter,critical,html-slider-response,0.8816460076307789,improbable,How likely is it for someone to carve a statue using a nail?,session-65d6684c39ae7,7_improbable,-0.7005930301056329,-0.38216515985504623,-0.5810153454876055
anon_subject_21,65d4fc29515df31cd1044a85,65d6673b50cd32b3cf075842,37,0.0-1.0-0.36,136896,4364,"<div style=""font-size:20px;""><p>How likely is it for someone to shatter a window using a frisbee?</p></div>",50,58,53,shatter,shattering,a window,using,shattering a window using,Could someone shatter a window using,[NP] shattered a window using,a stone,a frisbee,confetti,a concept,critical,html-slider-response,0.8816460076307789,improbable,How likely is it for someone to shatter a window using a frisbee?,session-65d6684c39ae7,53_improbable,0.40551680581299965,1.5720090088196836,0.5796617861504181
anon_subject_21,65d4fc29515df31cd1044a85,65d6673b50cd32b3cf075842,38,0.0-1.0-0.37,141696,4798,"<div style=""font-size:20px;""><p>How likely is it for someone to melt a chocolate bar using a promise?</p></div>",50,0,42,melt,melting,a chocolate bar,using,melting a chocolate bar using,Could someone melt a chocolate bar using,[NP] melted a chocolate bar using,a stove,a radiator,a napkin,a promise,critical,html-slider-response,0.8816460076307789,inconceivable,How likely is it for someone to melt a chocolate bar using a promise?,session-65d6684c39ae7,42_inconceivable,-0.7729792408516961,2.215981362050384,-0.7942009410945894
anon_subject_21,65d4fc29515df31cd1044a85,65d6673b50cd32b3cf075842,39,0.0-1.0-0.38,144145,2447,"<div style=""font-size:20px;""><p>How likely is it for someone to hang a painting using vapor?</p></div>",50,1,36,hang,hanging,a painting,using,hanging a painting using,Could someone hang a painting using,[NP] hung a painting using,screws,string,vapor,a handshake,critical,html-slider-response,0.8816460076307789,impossible,How likely is it for someone to hang a painting using vapor?,session-65d6684c39ae7,36_impossible,-0.9616913862724265,-1.2724495191601624,-0.7705136526938134
anon_subject_21,65d4fc29515df31cd1044a85,65d6673b50cd32b3cf075842,40,0.0-1.0-0.39,147813,3666,"<div style=""font-size:20px;""><p>How likely is it for someone to dry their hands using a sweater?</p></div>",50,69,29,dry,drying,[POSS] hands,using,drying [POSS] hands using,Could someone dry [POSS] hands using,[NP] dried [POSS] hands using,a towel,a sweater,a liquid,freedom,critical,html-slider-response,0.8816460076307789,improbable,How likely is it for someone to dry their hands using a sweater?,session-65d6684c39ae7,29_improbable,0.4924351476058373,0.5363115374947318,0.840221958558954
anon_subject_21,65d4fc29515df31cd1044a85,65d6673b50cd32b3cf075842,41,0.0-1.0-0.40,152830,5014,"<div style=""font-size:20px;""><p>How likely is it for someone to fill a purse with coins?</p></div>",50,97,34,fill,filling,a purse,with,filling a purse with,Could someone fill a purse with,[NP] filled a purse with,coins,cream,sofas,luck,critical,html-slider-response,0.8816460076307789,probable,How likely is it for someone to fill a purse with coins?,session-65d6684c39ae7,34_probable,1.477553271398712,2.5364837314002258,1.5034660337806818
anon_subject_21,65d4fc29515df31cd1044a85,65d6673b50cd32b3cf075842,42,0.0-1.0-0.41,155446,2614,"<div style=""font-size:20px;""><p>How likely is it for someone to dry laundry using juice?</p></div>",50,0,30,dry,drying,laundry,using,drying laundry using,Could someone dry laundry using,[NP] dried laundry using,a clothesline,a fan,juice,courage,critical,html-slider-response,0.8816460076307789,impossible,How likely is it for someone to dry laundry using juice?,session-65d6684c39ae7,30_impossible,-0.7656749133051943,-1.0246537058202383,-0.7942009410945894
anon_subject_21,65d4fc29515df31cd1044a85,65d6673b50cd32b3cf075842,43,0.0-1.0-0.42,159596,4148,"<div style=""font-size:20px;""><p>How likely is it for someone to squish a blueberry using their breath?</p></div>",50,0,58,squish,squishing,a blueberry,using,squishing a blueberry using,Could someone squish a blueberry using,[NP] squished a blueberry using,[POSS] finger,[POSS] nose,[POSS] breath,a sight,critical,html-slider-response,0.8816460076307789,impossible,How likely is it for someone to squish a blueberry using their breath?,session-65d6684c39ae7,58_impossible,-0.7362088050790604,1.2515066394698418,-0.7942009410945894
anon_subject_21,65d4fc29515df31cd1044a85,65d6673b50cd32b3cf075842,44,0.0-1.0-0.43,162162,2564,"<div style=""font-size:20px;""><p>How likely is it for someone to dig a hole using a spatula?</p></div>",50,6,24,dig,digging,a hole,using,digging a hole using,Could someone dig a hole using,[NP] dug a hole using,a shovel,a spatula,dirt,a yawn,critical,html-slider-response,0.8816460076307789,improbable,How likely is it for someone to dig a hole using a spatula?,session-65d6684c39ae7,24_improbable,-0.6315024810559435,-1.0988440690956647,-0.6520772106899335
anon_subject_21,65d4fc29515df31cd1044a85,65d6673b50cd32b3cf075842,45,0.0-1.0-0.44,166747,4583,"<div style=""font-size:20px;""><p>How likely is it for someone to tighten a bolt using a wrench?</p></div>",50,100,62,tighten,tightening,a bolt,using,tightening a bolt using,Could someone tighten a bolt using,[NP] tightened a bolt using,a wrench,chopsticks,a house,a dream,critical,html-slider-response,0.8816460076307789,probable,How likely is it for someone to tighten a bolt using a wrench?,session-65d6684c39ae7,62_probable,1.9057379294927062,1.896962799966051,1.5745278989830096
anon_subject_21,65d4fc29515df31cd1044a85,65d6673b50cd32b3cf075842,46,0.0-1.0-0.45,170413,3664,"<div style=""font-size:20px;""><p>How likely is it for someone to wash their hair using applause?</p></div>",50,9,65,wash,washing,[POSS] hair,using,washing [POSS] hair using,Could someone wash [POSS] hair using,[NP] washed [POSS] hair using,shampoo,detergent,a rainbow,applause,critical,html-slider-response,0.8816460076307789,inconceivable,How likely is it for someone to wash their hair using applause?,session-65d6684c39ae7,65_inconceivable,-0.5654997070601879,0.5333439229637148,-0.5810153454876055
anon_subject_21,65d4fc29515df31cd1044a85,65d6673b50cd32b3cf075842,47,0.0-1.0-0.46,173031,2616,"<div style=""font-size:20px;""><p>How likely is it for someone to sew a shirt using a toothpick?</p></div>",50,0,52,sew,sewing,a shirt,using,sewing a shirt using,Could someone sew a shirt using,[NP] sewed a shirt using,a needle,a toothpick,a potato,thunder,critical,html-slider-response,0.8816460076307789,improbable,How likely is it for someone to sew a shirt using a toothpick?,session-65d6684c39ae7,52_improbable,-0.6430626892616605,-1.0216860912892214,-0.7942009410945894
anon_subject_21,65d4fc29515df31cd1044a85,65d6673b50cd32b3cf075842,48,0.0-1.0-0.47,176996,3963,"<div style=""font-size:20px;""><p>How likely is it for someone to dock a boat using an anchor?</p></div>",50,97,27,dock,docking,a boat,using,docking a boat using,Could someone dock a boat using,[NP] docked a boat using,an anchor,an anvil,a balloon,a lesson,critical,html-slider-response,0.8816460076307789,probable,How likely is it for someone to dock a boat using an anchor?,session-65d6684c39ae7,27_probable,2.0848686893809187,0.9770022953507643,1.5034660337806818
anon_subject_21,65d4fc29515df31cd1044a85,65d6673b50cd32b3cf075842,49,0.0-1.0-0.48,179631,2633,"<div style=""font-size:20px;""><p>How likely is it for someone to squeeze juice from an envelope?</p></div>",50,0,57,squeeze,squeezing,juice,from,squeezing juice from,Could someone squeeze juice from,[NP] squeezed juice from,an orange,meat,an envelope,a mumble,critical,html-slider-response,0.8816460076307789,impossible,How likely is it for someone to squeeze juice from an envelope?,session-65d6684c39ae7,57_impossible,-0.8124870049889703,-0.9964613677755764,-0.7942009410945894
anon_subject_21,65d4fc29515df31cd1044a85,65d6673b50cd32b3cf075842,50,0.0-1.0-0.49,183030,3397,"<div style=""font-size:20px;""><p>How likely is it for someone to dip a biscuit into a floor?</p></div>",50,2,25,dip,dipping,a biscuit,into,dipping a biscuit into,Could someone dip a biscuit into,[NP] dipped a biscuit into,coffee,wine,a floor,a myth,critical,html-slider-response,0.8816460076307789,impossible,How likely is it for someone to dip a biscuit into a floor?,session-65d6684c39ae7,25_impossible,-0.8250215510705915,0.13716738307293813,-0.7468263642930374
anon_subject_21,65d4fc29515df31cd1044a85,65d6673b50cd32b3cf075842,51,0.0-1.0-0.50,186163,3131,"<div style=""font-size:20px;""><p>How likely is it for someone to lift a box using a forklift?</p></div>",50,96,38,lift,lifting,a box,using,lifting a box using,Could someone lift a box using,[NP] lifted a box using,a forklift,a pulley,foam,an emotion,critical,html-slider-response,0.8816460076307789,probable,How likely is it for someone to lift a box using a forklift?,session-65d6684c39ae7,38_probable,1.5306077783298877,-0.25752534955233003,1.4797787453799058
anon_subject_21,65d4fc29515df31cd1044a85,65d6673b50cd32b3cf075842,52,0.0-1.0-0.51,190065,3900,"<div style=""font-size:20px;""><p>How likely is it for someone to grow flowers inside a pot?</p></div>",50,100,35,grow,growing,flowers,inside,growing flowers inside,Could someone grow flowers inside,[NP] grew flowers inside,a pot,a mug,a marble,a sneeze,critical,html-slider-response,0.8816460076307789,probable,How likely is it for someone to grow flowers inside a pot?,session-65d6684c39ae7,35_probable,1.4876485873797392,0.8835224376237271,1.5745278989830096
anon_subject_21,65d4fc29515df31cd1044a85,65d6673b50cd32b3cf075842,53,0.0-1.0-0.52,193331,3264,"<div style=""font-size:20px;""><p>How likely is it for someone to wrap a present using a dress?</p></div>",50,4,67,wrap,wrapping,a present,using,wrapping a present using,Could someone wrap a present using,[NP] wrapped a present using,paper,a dress,ketchup,gossip,critical,html-slider-response,0.8816460076307789,improbable,How likely is it for someone to wrap a present using a dress?,session-65d6684c39ae7,67_improbable,-0.765400967429158,-0.060178983239695935,-0.6994517874914854
anon_subject_21,65d4fc29515df31cd1044a85,65d6673b50cd32b3cf075842,54,0.0-1.0-0.53,195912,2579,"<div style=""font-size:20px;""><p>How likely is it for someone to store dishes inside a thimble?</p></div>",50,0,60,store,storing,dishes,inside,storing dishes inside,Could someone store dishes inside,[NP] stored dishes inside,a cabinet,an attic,a thimble,an equation,critical,html-slider-response,0.8816460076307789,impossible,How likely is it for someone to store dishes inside a thimble?,session-65d6684c39ae7,60_impossible,-0.8858136741386866,-1.076586960113037,-0.7942009410945894
anon_subject_21,65d4fc29515df31cd1044a85,65d6673b50cd32b3cf075842,55,0.0-1.0-0.54,199146,3233,"<div style=""font-size:20px;""><p>How likely is it for someone to write a letter using a stylus?</p></div>",50,72,68,write,writing,a letter,using,writing a letter using,Could someone write a letter using,[NP] wrote a letter using,a pen,a stylus,a snowflake,a marathon,critical,html-slider-response,0.8816460076307789,improbable,How likely is it for someone to write a letter using a stylus?,session-65d6684c39ae7,68_improbable,0.6760160787707606,-0.10617700847046027,0.911283823761282
anon_subject_21,65d4fc29515df31cd1044a85,65d6673b50cd32b3cf075842,56,0.0-1.0-0.55,202047,2899,"<div style=""font-size:20px;""><p>How likely is it for someone to pack a suit inside a groan?</p></div>",50,1,44,pack,packing,a suit,inside,packing a suit inside,Could someone pack a suit inside,[NP] packed a suit inside,a suitcase,a pocket,a raspberry,a groan,critical,html-slider-response,0.8816460076307789,inconceivable,How likely is it for someone to pack a suit inside a groan?,session-65d6684c39ae7,44_inconceivable,-0.5856131127468379,-0.6017686351503082,-0.7705136526938134
anon_subject_21,65d4fc29515df31cd1044a85,65d6673b50cd32b3cf075842,57,0.0-1.0-0.56,205129,3080,"<div style=""font-size:20px;""><p>How likely is it for someone to shave their beard using a razor?</p></div>",50,100,54,shave,shaving,[POSS] beard,using,shaving [POSS] beard using,Could someone shave [POSS] beard using,[NP] shaved [POSS] beard using,a razor,a knife,a teabag,a belief,critical,html-slider-response,0.8816460076307789,probable,How likely is it for someone to shave their beard using a razor?,session-65d6684c39ae7,54_probable,1.7159120690037022,-0.33319952009326487,1.5745278989830096
anon_subject_21,65d4fc29515df31cd1044a85,65d6673b50cd32b3cf075842,58,0.0-1.0-0.57,208148,3016,"<div style=""font-size:20px;""><p>How likely is it for someone to enter a room through a door?</p></div>",50,100,32,enter,entering,a room,through,entering a room through,Could someone enter a room through,[NP] entered a room through,a door,a window,a wall,a theory,critical,html-slider-response,0.8816460076307789,probable,How likely is it for someone to enter a room through a door?,session-65d6684c39ae7,32_probable,1.3128419221729748,-0.4281631850858106,1.5745278989830096
anon_subject_21,65d4fc29515df31cd1044a85,65d6673b50cd32b3cf075842,59,0.0-1.0-0.58,210980,2830,"<div style=""font-size:20px;""><p>How likely is it for someone to crush a soda can using a tissue?</p></div>",50,0,20,crush,crushing,a soda can,using,crushing a soda can using,Could someone crush a soda can using,[NP] crushed a soda can using,a shoe,a chair,a tissue,a day,critical,html-slider-response,0.8816460076307789,impossible,How likely is it for someone to crush a soda can using a tissue?,session-65d6684c39ae7,20_impossible,-0.6141724701500163,-0.7041513364703965,-0.7942009410945894
anon_subject_21,65d4fc29515df31cd1044a85,65d6673b50cd32b3cf075842,60,0.0-1.0-0.59,213597,2616,"<div style=""font-size:20px;""><p>How likely is it for someone to pluck a hair using sympathy?</p></div>",50,0,47,pluck,plucking,a hair,using,plucking a hair using,Could someone pluck a hair using,[NP] plucked a hair using,tweezers,tongs,a spoon,sympathy,critical,html-slider-response,0.8816460076307789,inconceivable,How likely is it for someone to pluck a hair using sympathy?,session-65d6684c39ae7,47_inconceivable,-0.8358550660588516,-1.0216860912892214,-0.7942009410945894
anon_subject_21,65d4fc29515df31cd1044a85,65d6673b50cd32b3cf075842,61,0.0-1.0-0.60,217197,3598,"<div style=""font-size:20px;""><p>How likely is it for someone to drink a cup full of honey?</p></div>",50,38,28,drink,drinking,a cup,full of,drinking a cup full of,Could someone drink a cup full of,[NP] drank a cup full of,water,honey,lightning,minutes,critical,html-slider-response,0.8816460076307789,improbable,How likely is it for someone to drink a cup full of honey?,session-65d6684c39ae7,28_improbable,0.13557700858236077,0.435412643440152,0.10591601813489829
anon_subject_21,65d4fc29515df31cd1044a85,65d6673b50cd32b3cf075842,62,0.0-1.0-0.61,221897,4698,"<div style=""font-size:20px;""><p>How likely is it for someone to make a sandwich using a star?</p></div>",50,0,40,make,making,a sandwich,using,making a sandwich using,Could someone make a sandwich using,[NP] made a sandwich using,bread,lettuce,a star,a mile,critical,html-slider-response,0.8816460076307789,impossible,How likely is it for someone to make a sandwich using a star?,session-65d6684c39ae7,40_impossible,-1.0942551222103147,2.0676006354995313,-0.7942009410945894
anon_subject_21,65d4fc29515df31cd1044a85,65d6673b50cd32b3cf075842,63,0.0-1.0-0.62,224496,2597,"<div style=""font-size:20px;""><p>How likely is it for someone to display books on a sigh?</p></div>",50,0,26,display,displaying,books,on,displaying books on,Could someone display books on,[NP] displayed books on,a shelf,a bed,a galaxy,a sigh,critical,html-slider-response,0.8816460076307789,inconceivable,How likely is it for someone to display books on a sigh?,session-65d6684c39ae7,26_inconceivable,-0.9747840317145947,-1.0498784293338834,-0.7942009410945894
anon_subject_21,65d4fc29515df31cd1044a85,65d6673b50cd32b3cf075842,64,0.0-1.0-0.63,227264,2765,"<div style=""font-size:20px;""><p>How likely is it for someone to clean a carpet using a crayon?</p></div>",50,0,12,clean,cleaning,a carpet,using,cleaning a carpet using,Could someone clean a carpet using,[NP] cleaned a carpet using,a vacuum,a hat,a crayon,a week,critical,html-slider-response,0.8816460076307789,impossible,How likely is it for someone to clean a carpet using a crayon?,session-65d6684c39ae7,12_impossible,-0.5957388635112354,-0.8005988087284508,-0.7942009410945894
anon_subject_21,65d4fc29515df31cd1044a85,65d6673b50cd32b3cf075842,65,0.0-1.0-0.64,229947,2681,"<div style=""font-size:20px;""><p>How likely is it for someone to pave a road using happiness?</p></div>",50,0,46,pave,paving,a road,using,paving a road using,Could someone pave a road using,[NP] paved a road using,cement,seashells,a comet,happiness,critical,html-slider-response,0.8816460076307789,inconceivable,How likely is it for someone to pave a road using happiness?,session-65d6684c39ae7,46_inconceivable,-0.6029363766626371,-0.9252386190311671,-0.7942009410945894
anon_subject_21,65d4fc29515df31cd1044a85,65d6673b50cd32b3cf075842,66,0.0-1.0-0.65,232831,2883,"<div style=""font-size:20px;""><p>How likely is it for someone to start a fire using kindling?</p></div>",50,100,59,start,starting,a fire,using,starting a fire using,Could someone start a fire using,[NP] started a fire using,kindling,furniture,milk,humor,critical,html-slider-response,0.8816460076307789,probable,How likely is it for someone to start a fire using kindling?,session-65d6684c39ae7,59_probable,1.4291114690525724,-0.6255095513984447,1.5745278989830096
anon_subject_21,65d4fc29515df31cd1044a85,65d6673b50cd32b3cf075842,67,0.0-1.0-0.66,235414,2581,"<div style=""font-size:20px;""><p>How likely is it for someone to pop a balloon using cotton balls?</p></div>",50,0,49,pop,popping,a balloon,using,popping a balloon using,Could someone pop a balloon using,[NP] popped a balloon using,a thumbtack,a spear,cotton balls,a story,critical,html-slider-response,0.8816460076307789,impossible,How likely is it for someone to pop a balloon using cotton balls?,session-65d6684c39ae7,49_impossible,-0.8257733682035975,-1.0736193455820198,-0.7942009410945894
anon_subject_21,65d4fc29515df31cd1044a85,65d6673b50cd32b3cf075842,68,0.0-1.0-0.67,237863,2447,"<div style=""font-size:20px;""><p>How likely is it for someone to bake a cake inside a sigh?</p></div>",50,0,0,bake,baking,a cake,inside,baking a cake inside,Could someone bake a cake inside,[NP] baked a cake inside,an oven,an airfryer,a freezer,a sigh,critical,html-slider-response,0.8816460076307789,inconceivable,How likely is it for someone to bake a cake inside a sigh?,session-65d6684c39ae7,0_inconceivable,-0.97415022312704,-1.2724495191601624,-0.7942009410945894
anon_subject_21,65d4fc29515df31cd1044a85,65d6673b50cd32b3cf075842,69,0.0-1.0-0.68,240347,2481,"<div style=""font-size:20px;""><p>How likely is it for someone to write an equation on a scream?</p></div>",50,0,69,write,writing,an equation,on,writing an equation on,Could someone write an equation on,[NP] wrote an equation on,a chalkboard,a billboard,an atom,a scream,critical,html-slider-response,0.8816460076307789,inconceivable,How likely is it for someone to write an equation on a scream?,session-65d6684c39ae7,69_inconceivable,-1.1002725741021768,-1.2220000721328723,-0.7942009410945894
anon_subject_21,65d4fc29515df31cd1044a85,65d6673b50cd32b3cf075842,70,0.0-1.0-0.69,243731,3382,"<div style=""font-size:20px;""><p>How likely is it for someone to build a house out of brick?</p></div>",50,100,3,build,building,a house,out of,building a house out of,Could someone build a house out of,[NP] built a house out of,brick,grass,gas,language,critical,html-slider-response,0.8816460076307789,probable,How likely is it for someone to build a house out of brick?,session-65d6684c39ae7,3_probable,1.6071830046793354,0.11491027409031022,1.5745278989830096
anon_subject_35,65d4fc29515df31cd1044a85,65d6667a265c1952ee890c77,1,0.0-1.0-0.0,23921,4292,"<div style=""font-size:20px;""><p>How likely is it for someone to shave their beard using a razor?</p></div>",50,100,54,shave,shaving,[POSS] beard,using,shaving [POSS] beard using,Could someone shave [POSS] beard using,[NP] shaved [POSS] beard using,a razor,a knife,a teabag,a belief,critical,html-slider-response,0.216982874645512,probable,How likely is it for someone to shave their beard using a razor?,session-65d667f285702,54_probable,1.7159120690037022,-0.03291168420722768,1.5200063351290636
anon_subject_35,65d4fc29515df31cd1044a85,65d6667a265c1952ee890c77,2,0.0-1.0-0.1,30593,6671,"<div style=""font-size:20px;""><p>How likely is it for someone to write an equation on a chalkboard?</p></div>",50,95,69,write,writing,an equation,on,writing an equation on,Could someone write an equation on,[NP] wrote an equation on,a chalkboard,a billboard,an atom,a scream,critical,html-slider-response,0.216982874645512,probable,How likely is it for someone to write an equation on a chalkboard?,session-65d667f285702,69_probable,1.1039850079245375,1.2322736276648039,1.4086155861141616
anon_subject_35,65d4fc29515df31cd1044a85,65d6667a265c1952ee890c77,3,0.0-1.0-0.2,33877,3283,"<div style=""font-size:20px;""><p>How likely is it for someone to boil water using justice?</p></div>",50,0,1,boil,boiling,water,using,boiling water using,Could someone boil water using,[NP] boiled water using,a kettle,a microwave,a refrigerator,justice,critical,html-slider-response,0.216982874645512,inconceivable,How likely is it for someone to boil water using justice?,session-65d667f285702,1_inconceivable,-1.1647111300280606,-0.5695119278721624,-0.7078086451689777
anon_subject_35,65d4fc29515df31cd1044a85,65d6667a265c1952ee890c77,4,0.0-1.0-0.3,37379,3501,"<div style=""font-size:20px;""><p>How likely is it for someone to carry groceries inside a tornado?</p></div>",50,0,6,carry,carrying,groceries,inside,carrying groceries inside,Could someone carry groceries inside,[NP] carried groceries inside,a tote bag,a backpack,a tornado,a law,critical,html-slider-response,0.216982874645512,impossible,How likely is it for someone to carry groceries inside a tornado?,session-65d667f285702,6_impossible,-1.294918435225172,-0.4535764936611062,-0.7078086451689777
anon_subject_35,65d4fc29515df31cd1044a85,65d6667a265c1952ee890c77,5,0.0-1.0-0.4,39941,2561,"<div style=""font-size:20px;""><p>How likely is it for someone to climb a tree using a ladder?</p></div>",50,100,13,climb,climbing,a tree,using,climbing a tree using,Could someone climb a tree using,[NP] climbed a tree using,a ladder,a rope,oil,a poem,critical,html-slider-response,0.216982874645512,probable,How likely is it for someone to climb a tree using a ladder?,session-65d667f285702,13_probable,1.1314782669122734,-0.9534815769564864,1.5200063351290636
anon_subject_35,65d4fc29515df31cd1044a85,65d6667a265c1952ee890c77,6,0.0-1.0-0.5,42481,2539,"<div style=""font-size:20px;""><p>How likely is it for someone to light a candle using surprises?</p></div>",50,0,39,light,lighting,a candle,using,lighting a candle using,Could someone light a candle using,[NP] lit a candle using,a match,a blowtorch,yogurt,surprises,critical,html-slider-response,0.216982874645512,inconceivable,How likely is it for someone to light a candle using surprises?,session-65d667f285702,39_inconceivable,-0.726152760123976,-0.965181483161272,-0.7078086451689777
anon_subject_35,65d4fc29515df31cd1044a85,65d6667a265c1952ee890c77,7,0.0-1.0-0.6,45302,2820,"<div style=""font-size:20px;""><p>How likely is it for someone to unlock a door using a lie?</p></div>",50,0,64,unlock,unlocking,a door,using,unlocking a door using,Could someone unlock a door using,[NP] unlocked a door using,a key,a screwdriver,a marshmallow,a lie,critical,html-slider-response,0.216982874645512,inconceivable,How likely is it for someone to unlock a door using a lie?,session-65d667f285702,64_inconceivable,-0.8765211666807879,-0.8157417720910571,-0.7078086451689777
anon_subject_35,65d4fc29515df31cd1044a85,65d6667a265c1952ee890c77,8,0.0-1.0-0.7,48041,2738,"<div style=""font-size:20px;""><p>How likely is it for someone to carve a statue using a sock?</p></div>",50,0,7,carve,carving,a statue,using,carving a statue using,Could someone carve a statue using,[NP] carved a statue using,a chisel,a nail,a sock,laughter,critical,html-slider-response,0.216982874645512,impossible,How likely is it for someone to carve a statue using a sock?,session-65d667f285702,7_impossible,-0.9065152140034349,-0.8593505133998031,-0.7078086451689777
anon_subject_35,65d4fc29515df31cd1044a85,65d6667a265c1952ee890c77,9,0.0-1.0-0.8,50747,2705,"<div style=""font-size:20px;""><p>How likely is it for someone to pave a road using happiness?</p></div>",50,0,46,pave,paving,a road,using,paving a road using,Could someone pave a road using,[NP] paved a road using,cement,seashells,a comet,happiness,critical,html-slider-response,0.216982874645512,inconceivable,How likely is it for someone to pave a road using happiness?,session-65d667f285702,46_inconceivable,-0.6029363766626371,-0.8769003727069814,-0.7078086451689777
anon_subject_35,65d4fc29515df31cd1044a85,65d6667a265c1952ee890c77,10,0.0-1.0-0.9,55500,4752,"<div style=""font-size:20px;""><p>How likely is it for someone to rinse fruit using a giggle?</p></div>",50,0,51,rinse,rinsing,fruit,using,rinsing fruit using,Could someone rinse fruit using,[NP] rinsed fruit using,a sink,a hose,a clock,a giggle,critical,html-slider-response,0.216982874645512,inconceivable,How likely is it for someone to rinse fruit using a giggle?,session-65d667f285702,51_inconceivable,-0.903343626926935,0.21172271825646902,-0.7078086451689777
anon_subject_35,65d4fc29515df31cd1044a85,65d6667a265c1952ee890c77,11,0.0-1.0-0.10,58317,2815,"<div style=""font-size:20px;""><p>How likely is it for someone to wash their hair using shampoo?</p></div>",50,100,65,wash,washing,[POSS] hair,using,washing [POSS] hair using,Could someone wash [POSS] hair using,[NP] washed [POSS] hair using,shampoo,detergent,a rainbow,applause,critical,html-slider-response,0.216982874645512,probable,How likely is it for someone to wash their hair using shampoo?,session-65d667f285702,65_probable,1.5263894532031088,-0.8184008416830538,1.5200063351290636
anon_subject_35,65d4fc29515df31cd1044a85,65d6667a265c1952ee890c77,12,0.0-1.0-0.11,62219,3901,"<div style=""font-size:20px;""><p>How likely is it for someone to grow flowers inside a marble?</p></div>",50,0,35,grow,growing,flowers,inside,growing flowers inside,Could someone grow flowers inside,[NP] grew flowers inside,a pot,a mug,a marble,a sneeze,critical,html-slider-response,0.216982874645512,impossible,How likely is it for someone to grow flowers inside a marble?,session-65d667f285702,35_impossible,-0.9983951749527125,-0.2408509263013699,-0.7078086451689777
anon_subject_35,65d4fc29515df31cd1044a85,65d6667a265c1952ee890c77,13,0.0-1.0-0.12,65623,3403,"<div style=""font-size:20px;""><p>How likely is it for someone to display books on a shelf?</p></div>",50,100,26,display,displaying,books,on,displaying books on,Could someone display books on,[NP] displayed books on,a shelf,a bed,a galaxy,a sigh,critical,html-slider-response,0.216982874645512,probable,How likely is it for someone to display books on a shelf?,session-65d667f285702,26_probable,1.2691939418457063,-0.5056942576642416,1.5200063351290636
anon_subject_35,65d4fc29515df31cd1044a85,65d6667a265c1952ee890c77,14,0.0-1.0-0.13,68515,2891,"<div style=""font-size:20px;""><p>How likely is it for someone to pluck a hair using tongs?</p></div>",50,0,47,pluck,plucking,a hair,using,plucking a hair using,Could someone pluck a hair using,[NP] plucked a hair using,tweezers,tongs,a spoon,sympathy,critical,html-slider-response,0.216982874645512,improbable,How likely is it for someone to pluck a hair using tongs?,session-65d667f285702,47_improbable,-0.8358550660588516,-0.777982983884704,-0.7078086451689777
anon_subject_35,65d4fc29515df31cd1044a85,65d6667a265c1952ee890c77,15,0.0-1.0-0.14,73001,4485,"<div style=""font-size:20px;""><p>How likely is it for someone to remove a stain using dirt?</p></div>",50,0,50,remove,removing,a stain,using,removing a stain using,Could someone remove a stain using,[NP] removed a stain using,bleach,vinegar,dirt,truth,critical,html-slider-response,0.216982874645512,impossible,How likely is it for someone to remove a stain using dirt?,session-65d667f285702,50_impossible,-1.3186465100945097,0.06972840204384506,-0.7078086451689777
anon_subject_35,65d4fc29515df31cd1044a85,65d6667a265c1952ee890c77,16,0.0-1.0-0.15,77728,4726,"<div style=""font-size:20px;""><p>How likely is it for someone to wear shoes made of wood?</p></div>",50,1,66,wear,wearing,shoes,made of,wearing shoes made of,Could someone wear shoes made of,[NP] wore shoes made of,leather,wood,stars,traffic,critical,html-slider-response,0.216982874645512,improbable,How likely is it for someone to wear shoes made of wood?,session-65d667f285702,66_improbable,-0.6988954950090175,0.19789555637808617,-0.6855304953659973
anon_subject_35,65d4fc29515df31cd1044a85,65d6667a265c1952ee890c77,17,0.0-1.0-0.16,81005,3276,"<div style=""font-size:20px;""><p>How likely is it for someone to construct a tower out of bubbles?</p></div>",50,0,15,construct,constructing,a tower,out of,constructing a tower out of,Could someone construct a tower out of,[NP] constructed a tower out of,blocks,bubbles,sparks,seasons,critical,html-slider-response,0.216982874645512,improbable,How likely is it for someone to construct a tower out of bubbles?,session-65d667f285702,15_improbable,-0.7444766504669948,-0.5732346253009578,-0.7078086451689777
anon_subject_35,65d4fc29515df31cd1044a85,65d6667a265c1952ee890c77,18,0.0-1.0-0.17,85652,4647,"<div style=""font-size:20px;""><p>How likely is it for someone to dry their hands using a liquid?</p></div>",50,0,29,dry,drying,[POSS] hands,using,drying [POSS] hands using,Could someone dry [POSS] hands using,[NP] dried [POSS] hands using,a towel,a sweater,a liquid,freedom,critical,html-slider-response,0.216982874645512,impossible,How likely is it for someone to dry their hands using a liquid?,session-65d667f285702,29_impossible,-1.031243111802359,0.15588225682453827,-0.7078086451689777
anon_subject_35,65d4fc29515df31cd1044a85,65d6667a265c1952ee890c77,19,0.0-1.0-0.18,90729,5075,"<div style=""font-size:20px;""><p>How likely is it for someone to split a log using a saw?</p></div>",50,100,56,split,splitting,a log,using,splitting a log using,Could someone split a log using,[NP] split a log using,an axe,a saw,a feather,a gasp,critical,html-slider-response,0.216982874645512,improbable,How likely is it for someone to split a log using a saw?,session-65d667f285702,56_improbable,0.9025787130155554,0.38349861389945605,1.5200063351290636
anon_subject_35,65d4fc29515df31cd1044a85,65d6667a265c1952ee890c77,20,0.0-1.0-0.19,93565,2835,"<div style=""font-size:20px;""><p>How likely is it for someone to break a coconut using a rock?</p></div>",50,0,2,break,breaking,a coconut,using,breaking a coconut using,Could someone break a coconut using,[NP] broke a coconut using,a rock,a table,a pillow,a texture,critical,html-slider-response,0.216982874645512,probable,How likely is it for someone to break a coconut using a rock?,session-65d667f285702,2_probable,-0.7112125568262287,-0.8077645633150671,-0.7078086451689777
anon_subject_35,65d4fc29515df31cd1044a85,65d6667a265c1952ee890c77,21,0.0-1.0-0.20,96122,2556,"<div style=""font-size:20px;""><p>How likely is it for someone to clean a carpet using a crayon?</p></div>",50,0,12,clean,cleaning,a carpet,using,cleaning a carpet using,Could someone clean a carpet using,[NP] cleaned a carpet using,a vacuum,a hat,a crayon,a week,critical,html-slider-response,0.216982874645512,impossible,How likely is it for someone to clean a carpet using a crayon?,session-65d667f285702,12_impossible,-0.5957388635112354,-0.9561406465484831,-0.7078086451689777
anon_subject_35,65d4fc29515df31cd1044a85,65d6667a265c1952ee890c77,22,0.0-1.0-0.21,99549,3426,"<div style=""font-size:20px;""><p>How likely is it for someone to paint a wall using a whisper?</p></div>",50,0,45,paint,painting,a wall,using,painting a wall using,Could someone paint a wall using,[NP] painted a wall using,a brush,a mop,a bathtub,a whisper,critical,html-slider-response,0.216982874645512,inconceivable,How likely is it for someone to paint a wall using a whisper?,session-65d667f285702,45_inconceivable,-0.6704395298225231,-0.49346253754105673,-0.7078086451689777
anon_subject_35,65d4fc29515df31cd1044a85,65d6667a265c1952ee890c77,23,0.0-1.0-0.22,104637,5088,"<div style=""font-size:20px;""><p>How likely is it for someone to crush a soda can using a day?</p></div>",50,0,20,crush,crushing,a soda can,using,crushing a soda can using,Could someone crush a soda can using,[NP] crushed a soda can using,a shoe,a chair,a tissue,a day,critical,html-slider-response,0.216982874645512,inconceivable,How likely is it for someone to crush a soda can using a day?,session-65d667f285702,20_inconceivable,-0.6141724701500163,0.3904121948386475,-0.7078086451689777
anon_subject_35,65d4fc29515df31cd1044a85,65d6667a265c1952ee890c77,24,0.0-1.0-0.23,109125,4487,"<div style=""font-size:20px;""><p>How likely is it for someone to squish a blueberry using their breath?</p></div>",50,0,58,squish,squishing,a blueberry,using,squishing a blueberry using,Could someone squish a blueberry using,[NP] squished a blueberry using,[POSS] finger,[POSS] nose,[POSS] breath,a sight,critical,html-slider-response,0.216982874645512,impossible,How likely is it for someone to squish a blueberry using their breath?,session-65d667f285702,58_impossible,-0.7362088050790604,0.07079202988064374,-0.7078086451689777
anon_subject_35,65d4fc29515df31cd1044a85,65d6667a265c1952ee890c77,25,0.0-1.0-0.24,114386,5260,"<div style=""font-size:20px;""><p>How likely is it for someone to cool a room using shades?</p></div>",50,93,17,cool,cooling,a room,using,cooling a room using,Could someone cool a room using,[NP] cooled a room using,a fan,shades,a heater,a taste,critical,html-slider-response,0.216982874645512,improbable,How likely is it for someone to cool a room using shades?,session-65d667f285702,17_improbable,1.0727679284044331,0.4818841888033341,1.3640592865082006
anon_subject_35,65d4fc29515df31cd1044a85,65d6667a265c1952ee890c77,26,0.0-1.0-0.25,121659,7272,"<div style=""font-size:20px;""><p>How likely is it for someone to melt a chocolate bar using a radiator?</p></div>",50,96,42,melt,melting,a chocolate bar,using,melting a chocolate bar using,Could someone melt a chocolate bar using,[NP] melted a chocolate bar using,a stove,a radiator,a napkin,a promise,critical,html-slider-response,0.216982874645512,improbable,How likely is it for someone to melt a chocolate bar using a radiator?,session-65d667f285702,42_improbable,1.6744484346681863,1.5518937926228076,1.4308937359171419
anon_subject_35,65d4fc29515df31cd1044a85,65d6667a265c1952ee890c77,27,0.0-1.0-0.26,127966,6307,"<div style=""font-size:20px;""><p>How likely is it for someone to open a jar using their feet?</p></div>",50,5,43,open,opening,a jar,using,opening a jar using,Could someone open a jar using,[NP] opened a jar using,[POSS] hands,[POSS] feet,[POSS] mind,an opinion,critical,html-slider-response,0.216982874645512,improbable,How likely is it for someone to open a jar using their feet?,session-65d667f285702,43_improbable,-0.639273275787183,1.0386933613674438,-0.5964178961540756
anon_subject_35,65d4fc29515df31cd1044a85,65d6667a265c1952ee890c77,28,0.0-1.0-0.27,131034,3067,"<div style=""font-size:20px;""><p>How likely is it for someone to wrap a present using gossip?</p></div>",50,0,67,wrap,wrapping,a present,using,wrapping a present using,Could someone wrap a present using,[NP] wrapped a present using,paper,a dress,ketchup,gossip,critical,html-slider-response,0.216982874645512,inconceivable,How likely is it for someone to wrap a present using gossip?,session-65d667f285702,67_inconceivable,-0.8526718165368455,-0.6843837342464201,-0.7078086451689777
anon_subject_35,65d4fc29515df31cd1044a85,65d6667a265c1952ee890c77,29,0.0-1.0-0.28,135783,4747,"<div style=""font-size:20px;""><p>How likely is it for someone to bake a cake inside an airfryer?</p></div>",50,38,0,bake,baking,a cake,inside,baking a cake inside,Could someone bake a cake inside,[NP] baked a cake inside,an oven,an airfryer,a freezer,a sigh,critical,html-slider-response,0.216982874645512,improbable,How likely is it for someone to bake a cake inside an airfryer?,session-65d667f285702,0_improbable,-0.07841307968874439,0.20906364866447233,0.138761047344278
anon_subject_35,65d4fc29515df31cd1044a85,65d6667a265c1952ee890c77,30,0.0-1.0-0.29,139730,3947,"<div style=""font-size:20px;""><p>How likely is it for someone to make a sandwich using a star?</p></div>",50,0,40,make,making,a sandwich,using,making a sandwich using,Could someone make a sandwich using,[NP] made a sandwich using,bread,lettuce,a star,a mile,critical,html-slider-response,0.216982874645512,impossible,How likely is it for someone to make a sandwich using a star?,session-65d667f285702,40_impossible,-1.0942551222103147,-0.21638748605500022,-0.7078086451689777
anon_subject_35,65d4fc29515df31cd1044a85,65d6667a265c1952ee890c77,31,0.0-1.0-0.30,149368,9637,"<div style=""font-size:20px;""><p>How likely is it for someone to write a letter using a stylus?</p></div>",50,82,68,write,writing,a letter,using,writing a letter using,Could someone write a letter using,[NP] wrote a letter using,a pen,a stylus,a snowflake,a marathon,critical,html-slider-response,0.216982874645512,improbable,How likely is it for someone to write a letter using a stylus?,session-65d667f285702,68_improbable,0.9099316769613353,2.8096337096372483,1.1189996386754162
anon_subject_35,65d4fc29515df31cd1044a85,65d6667a265c1952ee890c77,32,0.0-1.0-0.31,152636,3267,"<div style=""font-size:20px;""><p>How likely is it for someone to shatter a window using a stone?</p></div>",50,100,53,shatter,shattering,a window,using,shattering a window using,Could someone shatter a window using,[NP] shattered a window using,a stone,a frisbee,confetti,a concept,critical,html-slider-response,0.216982874645512,probable,How likely is it for someone to shatter a window using a stone?,session-65d667f285702,53_probable,1.3885010064763135,-0.5780209505665519,1.5200063351290636
anon_subject_35,65d4fc29515df31cd1044a85,65d6667a265c1952ee890c77,33,0.0-1.0-0.32,155376,2739,"<div style=""font-size:20px;""><p>How likely is it for someone to close a jacket using a zipper?</p></div>",50,100,14,close,closing,a jacket,using,closing a jacket using,Could someone close a jacket using,[NP] closed a jacket using,a zipper,glue,fog,a word,critical,html-slider-response,0.216982874645512,probable,How likely is it for someone to close a jacket using a zipper?,session-65d667f285702,14_probable,1.2413976383543668,-0.8588186994814038,1.5200063351290636
anon_subject_35,65d4fc29515df31cd1044a85,65d6667a265c1952ee890c77,34,0.0-1.0-0.33,158805,3427,"<div style=""font-size:20px;""><p>How likely is it for someone to turn an apple into a cherry?</p></div>",50,0,63,turn,turning,an apple,into,turning an apple into,Could someone turn an apple into,[NP] turned an apple into,a pie,a salad,a cherry,honesty,critical,html-slider-response,0.216982874645512,impossible,How likely is it for someone to turn an apple into a cherry?,session-65d667f285702,63_impossible,-0.9495814865557626,-0.4929307236226574,-0.7078086451689777
