,item,item_index,count,responses,rt,age,trial_type,rating
12187,African aftermath,12187,10,[-3 -2  2 -2  3  1  2  1  1  2],3373.3,32.5,crit,0.5
16058,African bill,16058,9,[ 2  3 -1 -3 -3  2 -2 -3  2],5407.222222222223,34.44444444444444,crit,-0.3333333333333333
4883,African can,4883,12,[ 2 -3 -1  3  1 -3  1  1 -2  2  0  3],3808.5833333333335,30.75,crit,0.3333333333333333
18160,African catalog,18160,8,[ 3  3 -1 -1  3 -3 -1 -3],3491.375,32.375,crit,0.0
5274,African chance,5274,13,[-2 -3  3 -1 -2 -3 -3 -1 -2 -3 -2  1  0],4000.0,33.61538461538461,crit,-1.3846153846153846
14346,African grief,14346,10,[ 2  2  0  3  1 -3  3  1  0  2],5643.7,32.5,crit,1.1
11137,African handset,11137,10,[ 1 -1  0  3 -3 -1 -3  3 -3 -3],3154.4,36.9,crit,-0.7
2580,African inception,2580,10,[-2  2 -3  1 -3  3 -2  1 -3  3],4803.3,41.0,crit,-0.3
1134,African investigation,1134,8,[2 3 1 1 3 1 1 3],3625.875,39.125,crit,1.875
12988,African luxury,12988,8,[ 2  3 -1  2  3  3  3  2],3817.625,33.375,crit,2.125
1954,African nomination,1954,39,"[ 2  2 -3  3  0 -3  2  3 -1 -3  3  0  1 -1 -2  2 -2  3  3  3 -3 -1  1  3
  1  3  3  3  0  3 -2 -3  0  2  3 -3  2  0  3]",3665.2820512820513,38.02564102564103,crit,0.6923076923076923
16203,African nose,16203,11,[-1  3 -2  3  3  2  3  3 -3 -1  3],3821.2727272727275,30.181818181818183,crit,1.1818181818181819
10897,African novice,10897,10,[ 0 -3  2  3 -3  2  3  1 -2  2],3504.0,32.2,crit,0.5
12032,African outset,12032,11,[-2 -3 -1  2 -2 -3 -3  3 -3 -3  2],8177.727272727273,39.72727272727273,crit,-1.1818181818181819
1982,African pier,1982,39,"[ 3 -1  2 -2  3 -2  0  1 -1 -3  2  1  3  1  1  1 -3 -3  3  1  3 -3  0  3
  3  2  3  3  3  2 -3 -2  2  2  2 -3 -1  0  3]",4330.153846153846,39.05128205128205,crit,0.6666666666666666
15651,African pollution,15651,11,[ 3  3  3  1  2  1 -2  2  2  3  1],3395.181818181818,34.0,crit,1.7272727272727273
13429,African preparation,13429,10,[ 1 -3 -1  0  2  2  1 -3 -3 -3],5236.4,50.7,crit,-0.7
13312,African shortage,13312,12,[-2 -2 -3 -3  2  2  3 -1  0 -1 -3 -3],4370.333333333333,34.75,crit,-0.9166666666666666
2223,African trunk,2223,8,[ 1  3 -2  2  0 -3  1  0],6792.625,32.5,crit,0.25
19427,American beam,19427,10,[-3 -3 -2  2 -1 -1 -1 -3 -2 -2],6048.0,30.5,crit,-1.6
19966,American bulk,19966,10,[ 1  2 -2 -3  0 -2 -3  0  0  1],4350.4,30.7,crit,-0.6
10914,American correlation,10914,9,[ 0 -3  1  2  1 -1  0 -3  2],9706.0,29.11111111111111,crit,-0.1111111111111111
9609,American crater,9609,11,[-3 -3  3  2  0  1  1 -2  1  2 -2],4745.0,34.81818181818182,crit,0.0
8967,American dairy,8967,9,[ 0  3  2  3  2  2  3 -1  3],4970.333333333333,29.666666666666668,crit,1.8888888888888888
18295,American hook,18295,9,[ 1 -1  1  2 -3  3 -3 -1 -2],3244.777777777778,27.22222222222222,crit,-0.3333333333333333
14020,American ice,14020,11,[ 2  3  3  0  0  0  1 -2 -1  2 -1],4537.090909090909,32.09090909090909,crit,0.6363636363636364
11558,American incidence,11558,11,[ 3 -3  2  2  1  3  2  2  3  2  2],5915.0,36.27272727272727,crit,1.7272727272727273
11019,American inflammation,11019,10,[-3 -3 -2 -2 -2 -2 -3  1 -1 -1],4511.5,39.5,crit,-1.8
19100,American ion,19100,11,[-3 -3 -3 -3 -2 -1 -3 -3 -3 -3 -3],4162.181818181818,30.90909090909091,crit,-2.727272727272727
16196,American oxide,16196,14,[-3 -2 -3 -3 -3  2 -1 -1  0 -3 -3 -3  0 -3],3563.4285714285716,41.642857142857146,crit,-1.8571428571428572
1146,American protein,1146,12,[ 3  1  3  1 -2 -1  0  2 -3 -3 -3 -3],6677.333333333333,31.666666666666668,crit,-0.4166666666666667
15432,American reef,15432,9,[ 2  1  1 -2  1  3  3  2  1],4843.444444444444,30.666666666666668,crit,1.3333333333333333
16000,American ref,16000,11,[ 1  3  0  3  2  1 -3  3  3  3 -1],7387.363636363636,32.45454545454545,crit,1.3636363636363635
7713,American sleep,7713,11,[-3  1  1 -2 -2  2  0  0 -3 -2  3],5421.090909090909,28.727272727272727,crit,-0.45454545454545453
18152,American throat,18152,10,[ 3 -3  1 -3 -3  1 -2 -3 -3  0],4015.3,37.0,crit,-1.2
3177,American tiger,3177,11,[ 2  3  2 -2  0  2  3  3  3  3  3],2711.0,31.545454545454547,crit,2.0
17490,American wording,17490,10,[-2 -1  1  2  3  3  3  1  3  0],4314.6,31.7,crit,1.3
17447,Arab ace,17447,9,[ 0 -3  0 -2  1 -3 -3 -1  0],5236.444444444444,30.0,crit,-1.2222222222222223
3291,Arab ascent,3291,9,[-3  3 -3  0 -1  0  1 -2 -2],5205.777777777777,32.55555555555556,crit,-0.7777777777777778
19582,Arab banner,19582,11,[ 3  1  3 -3 -3  1 -3  2  3  0  1],3140.5454545454545,32.27272727272727,crit,0.45454545454545453
16289,Arab beauty,16289,19,[ 3  3  2  3 -1  2  3  3  3  3 -3  1  3  2  3  3  3  3  3],4507.631578947368,29.105263157894736,crit,2.210526315789474
1104,Arab beer,1104,11,[2 3 0 3 3 1 3 3 3 1 0],8375.363636363636,30.363636363636363,crit,2.0
6114,Arab century,6114,8,[ 1  0 -3  1 -2 -3  1  0],5907.5,35.25,crit,-0.625
7502,Arab clarification,7502,15,[-1  0  0  0  0  1 -3 -2  3  1 -2  0 -3  0 -1],3871.4,27.8,crit,-0.4666666666666667
14283,Arab compliance,14283,9,[ 2  2 -1 -1 -2  1 -2  3  1],4162.666666666667,30.444444444444443,crit,0.3333333333333333
18768,Arab councillor,18768,11,[-3  2  2  3  0  3  3  1  3  3  2],5891.636363636364,36.72727272727273,crit,1.7272727272727273
8496,Arab cream,8496,9,[-2  0 -3  3  2 -1  0 -3 -1],3028.6666666666665,34.888888888888886,crit,-0.5555555555555556
4273,Arab danger,4273,13,[ 3  3  3 -1  1  2 -2 -3 -3 -1  2  1 -3],4299.846153846154,48.69230769230769,crit,0.15384615384615385
16205,Arab deficiency,16205,13,[-2 -3  2 -3  0 -1 -3  2  3  3  2 -2  1],4973.461538461538,38.0,crit,-0.07692307692307693
14050,Arab dissolution,14050,9,[-2  0  1 -3  0 -3 -3 -1  1],7892.111111111111,32.55555555555556,crit,-1.1111111111111112
12552,Arab gem,12552,12,[ 2  3  3  1 -3  3 -2  1 -3  1  3  1],3738.1666666666665,41.25,crit,0.8333333333333334
9266,Arab hierarchy,9266,9,[1 2 2 3 3 3 3 2 3],3189.8888888888887,31.555555555555557,crit,2.4444444444444446
12643,Arab induction,12643,9,[-3  1 -3  2 -3  3 -2 -3 -1],2934.3333333333335,38.888888888888886,crit,-1.0
7685,Arab jazz,7685,11,[ 1  1  1 -2  0  2 -2 -3  3  3 -1],3498.2727272727275,31.454545454545453,crit,0.2727272727272727
2058,Arab leisure,2058,42,"[-2 -2 -2 -3 -3  3  0 -3 -3 -3 -1 -3 -2 -2  0 -3 -2 -3 -3 -3 -1 -3 -2  0
  0 -1 -1 -3  1 -3 -3 -3 -2 -1  0 -1  1 -3 -2  2  0 -3]",6219.642857142857,38.73809523809524,crit,-1.619047619047619
10775,Arab lifetime,10775,12,[ 3 -2  0  0  3  2  3  3  3 -3  3  2],3265.0,33.583333333333336,crit,1.4166666666666667
9850,Arab monitoring,9850,11,[ 0 -2 -3  0  1  0  3 -3 -2 -3 -1],5654.818181818182,29.727272727272727,crit,-0.9090909090909091
1964,Arab motorway,1964,42,"[ 3 -2 -3  3 -3 -2 -3  3  3 -3  3  1  0 -3  0  1 -3 -3  2  3  1  3  3  1
 -1  3  3 -3  3  1 -3 -3 -1 -3  2 -1 -2  2  1 -3  1 -3]",3950.285714285714,37.166666666666664,crit,-0.047619047619047616
19867,Arab planner,19867,9,[ 0 -1  2 -2 -3  2  2 -1  3],2983.0,39.0,crit,0.2222222222222222
18371,Arab procession,18371,10,[ 0  1 -1 -3 -3  1  2  3  3  3],5139.1,32.5,crit,0.6
10026,Arab reunion,10026,13,[ 1  2  1  1  1  3  2  2  3  1  2  3 -3],3831.6153846153848,37.07692307692308,crit,1.4615384615384615
8938,Arab row,8938,10,[-3 -3 -3 -3  1 -3 -3 -2  1 -3],3110.2,34.9,crit,-2.1
8869,Arab sanctuary,8869,11,[-3  2  2  2  2  0  3 -3  3  0  1],3461.2727272727275,37.72727272727273,crit,0.8181818181818182
2659,Arab sink,2659,12,[-3 -1 -3  1  1  3  2 -1 -1  2 -3  1],4895.083333333333,32.083333333333336,crit,-0.16666666666666666
16847,Arab spreadsheet,16847,11,[-3 -2  0 -3  3 -1  0 -2 -3  2 -1],3676.6363636363635,40.09090909090909,crit,-0.9090909090909091
16657,Arab theology,16657,11,[ 2  3 -3  3  2  2  3 -3  3  3  2],4051.7272727272725,38.72727272727273,crit,1.5454545454545454
3308,Arab thread,3308,11,[-3  3  0 -3  3  0  2 -3 -1 -2 -3],2717.3636363636365,36.09090909090909,crit,-0.6363636363636364
880,Arab towel,880,11,[-3  0  0  3  1  3  1  3  3  2  1],4431.0,30.181818181818183,crit,1.2727272727272727
12565,Arab vampire,12565,14,[-3  2  3  1  1  2  2  2  0  2  1  2 -3 -3],4359.571428571428,40.07142857142857,crit,0.6428571428571429
8409,Arab variable,8409,11,[-2 -3 -2 -1 -3 -1  1 -2 -2  1 -2],5183.181818181818,29.181818181818183,crit,-1.4545454545454546
14325,Arab variation,14325,11,[ 1  3  2 -3 -2  2  0 -3  0 -1 -3],4027.181818181818,32.18181818181818,crit,-0.36363636363636365
16606,Arab vocalist,16606,9,[-3  3  3  3  2  2  3 -3  2],2831.4444444444443,33.333333333333336,crit,1.3333333333333333
16189,Arab voltage,16189,11,[-3 -1 -2 -1 -3 -3 -3  0 -3 -2 -3],3720.0,39.72727272727273,crit,-2.1818181818181817
14079,Asian assistance,14079,12,[ 3  1  3  0  2  1  1  1  2 -2  3  0],4270.166666666667,38.416666666666664,crit,1.25
3211,Asian batch,3211,11,[-2 -3  3  2  2  1 -3  3 -1  0  3],5843.727272727273,37.90909090909091,crit,0.45454545454545453
4496,Asian bowel,4496,10,[ 3 -3  0 -2  0 -2  1  1  1 -2],3700.8,29.5,crit,-0.3
11884,Asian chip,11884,8,[-2  1  3 -3  2  3  3  0],7097.375,38.75,crit,0.875
16971,Asian cloth,16971,9,[-1  2  2 -3  3 -3  3  3  3],6916.0,32.333333333333336,crit,1.0
1384,Asian consequence,1384,12,[-3 -3 -3 -3  1 -3 -1 -3 -3  1 -3 -3],5068.833333333333,35.75,crit,-2.1666666666666665
17073,Asian cottage,17073,9,[-3  2  2  2  2  3  3  1  0],3551.4444444444443,35.22222222222222,crit,1.3333333333333333
5514,Asian dentist,5514,10,[3 3 2 3 1 3 1 3 2 3],4545.3,39.5,crit,2.4
4562,Asian dissertation,4562,9,[-1  0 -2 -2  3  3  0 -3 -3],7155.333333333333,31.22222222222222,crit,-0.5555555555555556
15013,Asian ease,15013,10,[-3 -3 -2 -3  1 -3  0 -3 -3 -3],4349.4,33.8,crit,-2.2
12979,Asian editorial,12979,11,[ 3 -1  1 -3  2 -1 -1  0  2  2  1],13449.454545454546,32.4,crit,0.45454545454545453
6787,Asian founding,6787,9,[ 1  1  3 -3  2 -3 -1  2 -2],4404.444444444444,34.888888888888886,crit,0.0
17933,Asian fraction,17933,9,[ 2 -1  0 -3 -2 -3 -3  3  0],3681.3333333333335,32.55555555555556,crit,-0.7777777777777778
16334,Asian illusion,16334,9,[-3 -3 -2  2  2  1  0  2 -3],3657.777777777778,29.77777777777778,crit,-0.4444444444444444
6339,Asian income,6339,11,[ 3 -3  1 -3  3 -3  3  2  0  3  1],3579.090909090909,33.54545454545455,crit,0.6363636363636364
4578,Asian lifetime,4578,13,[ 3  0 -1  0 -3  1  3  0 -3 -3  2  2 -3],2548.769230769231,25.923076923076923,crit,-0.15384615384615385
17478,Asian liquid,17478,9,[-3  3 -1 -3 -2 -2  1 -2 -2],5040.444444444444,41.22222222222222,crit,-1.2222222222222223
1788,Asian manga,1788,16,[3 1 2 3 3 2 3 3 3 3 3 3 3 3 3 3],3439.0625,27.875,crit,2.75
10830,Asian militia,10830,13,[ 2  3  3  3  3  1 -2 -2  3  3  3 -2  3],3174.076923076923,34.53846153846154,crit,1.6153846153846154
5961,Asian north,5961,11,[ 0 -3  3 -3 -3  0  0 -1  3  2  0],5600.090909090909,32.0,crit,-0.18181818181818182
8468,Asian obstacle,8468,9,[-1 -2 -2  3  2  0 -1 -3 -3],5032.333333333333,35.0,crit,-0.7777777777777778
5730,Asian oven,5730,8,[-3  2  3 -3  3 -3  2  1],3561.5,27.0,crit,0.25
19711,Asian relaxation,19711,8,[ 0 -3  0  2  2 -3  1  0],3930.125,29.625,crit,-0.125
11787,Asian sleeve,11787,14,[-3 -3 -1 -2  3 -3 -2 -3 -1  1  0 -3 -3  2],4750.857142857143,36.714285714285715,crit,-1.2857142857142858
3468,Asian tower,3468,10,[ 2  3 -2 -1  3  3  3 -3  3  3],3344.1,33.0,crit,1.4
14864,Asian void,14864,10,[-3  0 -1 -3  2 -3  1 -3  1 -3],3305.5,31.1,crit,-1.2
18036,Asian wagon,18036,9,[ 1  2 -1  2 -3 -3 -3  2  0],5293.111111111111,36.22222222222222,crit,-0.3333333333333333
10888,Asian worship,10888,9,[-2  0  0  0  3  3 -3  2  3],7976.666666666667,28.88888888888889,crit,0.6666666666666666
17927,Australian Viking,17927,13,[-3  2  1 -3 -3  3 -3  0 -2 -3 -3  2 -2],4348.846153846154,40.15384615384615,crit,-1.0769230769230769
10554,Australian burning,10554,10,[-2 -3 -3  1 -3 -1 -2  0  1 -1],4492.8,31.5,crit,-1.3
6646,Australian continuity,6646,11,[ 0  1 -3  3  3  0 -3 -2 -1  1  3],4507.909090909091,39.27272727272727,crit,0.18181818181818182
17469,Australian discrimination,17469,9,[ 1  1  1  3 -3  3  3  2  2],3452.777777777778,34.22222222222222,crit,1.4444444444444444
3356,Australian fate,3356,9,[-3  1 -1  1  0  0  1 -2  0],4040.5555555555557,31.88888888888889,crit,-0.3333333333333333
19386,Australian ice,19386,13,[-1 -3  0 -3  3  2  0  2  3  0  3  3  2],5674.153846153846,40.69230769230769,crit,0.8461538461538461
6045,Australian inheritance,6045,13,[-1 -3  0 -3  3 -3  1 -1  1  1  2 -2  0],5203.153846153846,35.84615384615385,crit,-0.38461538461538464
3955,Australian key,3955,9,[ 2  0  3  3  1  1  1 -2 -1],3842.777777777778,27.22222222222222,crit,0.8888888888888888
10070,Australian nail,10070,9,[ 3  0  0  1  0  3 -3 -2  1],5890.444444444444,34.333333333333336,crit,0.3333333333333333
16566,Australian onset,16566,15,[ 0  1 -1 -2 -3 -3 -2 -3 -3 -3 -3 -3 -1 -2  3],6046.4,30.4,crit,-1.6666666666666667
6162,Australian precision,6162,13,[-3 -1  1  1  0 -2 -2 -3 -1  2  0  3  0],3807.6153846153848,39.84615384615385,crit,-0.38461538461538464
17464,Australian procurement,17464,9,[ 1 -2  3  2  2  3  0  0  1],4320.666666666667,31.666666666666668,crit,1.1111111111111112
519,Australian protein,519,18,[-1 -2  1 -2 -1  1 -2 -2  1  2 -3  3 -3  1 -1  0 -3  3],3705.8333333333335,32.166666666666664,crit,-0.4444444444444444
19676,Australian repayment,19676,14,[ 3 -2 -3  0 -3 -1  3 -3 -3 -3  1  1 -3  2],5929.571428571428,36.0,crit,-0.7857142857142857
3933,Australian ribbon,3933,12,[ 1  3  1  1 -3  0  0  3  3 -1  3  2],4590.916666666667,27.833333333333332,crit,1.0833333333333333
17488,Australian rubber,17488,9,[ 2  3 -3  0  3  3 -2  1  2],2926.3333333333335,38.666666666666664,crit,1.0
1033,Australian sharing,1033,10,[ 2 -3 -2 -2 -3  1 -2 -1  2 -3],4339.2,30.5,crit,-1.1
18082,Australian speaking,18082,12,[ 3  3  0  3  3  3  2  1 -3 -1 -3  3],3817.9166666666665,36.083333333333336,crit,1.1666666666666667
19208,Australian tea,19208,8,[ 3 -2  3  3 -2  3  3  3],2982.625,32.5,crit,1.75
16712,Australian thumb,16712,9,[-3  1  1  2 -1 -3 -3 -2 -3],3654.777777777778,28.444444444444443,crit,-1.2222222222222223
3236,Australian towel,3236,9,[-3  1  1  0  0  3 -2  3 -2],3289.6666666666665,30.77777777777778,crit,0.1111111111111111
15520,Australian vacuum,15520,9,[ 2  3  2 -3  0 -3 -2 -2  3],4064.8888888888887,39.44444444444444,crit,0.0
4208,Australian waterfall,4208,10,[ 3  2  3  2 -3  3  3  3  1  3],3399.9,28.5,crit,2.0
15473,Australian wind,15473,8,[ 3  2  2  3 -1  2  2  3],3583.25,41.625,crit,2.0
1479,British DIY,1479,10,[-1 -2  0  3  3  1  1  1 -2 -1],4202.6,37.2,crit,0.3
14123,British coursework,14123,11,[ 3  1  2  3 -1  2  3  2  3  2  3],8707.272727272728,30.272727272727273,crit,2.090909090909091
13768,British dust,13768,10,[-3 -2  3  2  1  3  3 -2  2  1],3072.7,34.7,crit,0.8
19084,British extinction,19084,11,[ 0  2 -1  3  1  3  2 -2 -2 -3  2],3946.2727272727275,29.818181818181817,crit,0.45454545454545453
12824,British harvest,12824,8,[3 2 2 2 3 3 0 3],3483.25,34.0,crit,2.25
3331,British heading,3331,11,[-3  3  1 -2  0 -2  1  1 -1  0 -1],3177.0,37.09090909090909,crit,-0.2727272727272727
2416,British passing,2416,8,[-2  3  1 -3 -3  0 -3  0],3671.125,33.125,crit,-0.875
1447,British premium,1447,12,[ 1 -3  1 -3 -2 -2 -2  0  0 -2 -1  3],3888.0833333333335,30.75,crit,-0.8333333333333334
393,British url,393,9,[ 2  2 -3 -3  3 -3  3  3 -3],5825.0,37.22222222222222,crit,0.1111111111111111
784,British wrist,784,13,[-2 -2  1 -2 -3 -1 -1  1  1 -1 -2 -1 -3],4175.0,35.84615384615385,crit,-1.1538461538461537
19572,Canadian acronym,19572,10,[ 2  3 -2  3  1 -3  3 -2  1  2],5959.8,27.6,crit,0.8
10827,Canadian appliance,10827,15,[ 0  3  1  3  2  3  3  3  3  3  3  3 -3  2  3],5905.466666666666,37.13333333333333,crit,2.1333333333333333
589,Canadian cluster,589,12,[ 2  1  3  1  1  3  3  0  1 -2 -2 -2],3871.9166666666665,31.666666666666668,crit,0.75
9632,Canadian creativity,9632,11,[ 1  1  3  1  1  0  3 -2  3  0  3],3558.3636363636365,30.272727272727273,crit,1.2727272727272727
10214,Canadian deficiency,10214,13,[ 2  2 -1 -3 -3  0  1 -2  0  3 -2 -3  2],4345.076923076923,31.0,crit,-0.3076923076923077
12128,Canadian dismissal,12128,13,[-3 -2  1  1 -2 -2  1  3 -3  1  3  0 -3],5093.076923076923,35.46153846153846,crit,-0.38461538461538464
15025,Canadian dock,15025,10,[ 3  3  3  0  1  2  3  2  1 -1],7643.8,27.8,crit,1.7
18228,Canadian feast,18228,10,[ 2  3  2  3 -3  3  2  2  3  3],4654.5,36.2,crit,2.0
14019,Canadian lion,14019,9,[ 3  3  3 -2  2 -3  3 -3  2],4655.0,28.0,crit,0.8888888888888888
12690,Canadian node,12690,11,[ 0 -2  1  1  0 -1 -2  3  0  0  1],6446.909090909091,32.72727272727273,crit,0.09090909090909091
11768,Canadian notebook,11768,12,[ 3  1  1  1  3  1  3  3  1 -2  0  2],3445.0833333333335,31.916666666666668,crit,1.4166666666666667
1510,Canadian nutrient,1510,11,[ 1  2  0 -2  2  0 -1 -2 -2 -1  3],7377.818181818182,31.454545454545453,crit,0.0
17847,Canadian passing,17847,9,[-2 -1 -3  3 -1  0  2  3  2],7063.111111111111,34.55555555555556,crit,0.3333333333333333
17141,Canadian reconciliation,17141,10,[ 2  1  1  1 -3  1  0  1 -2 -3],5605.4,31.7,crit,-0.1
12762,Canadian remedy,12762,9,[-2 -2  3  3  3  1 -3  0  0],4380.111111111111,32.77777777777778,crit,0.3333333333333333
7725,Canadian rod,7725,9,[-2 -3  2  0 -2  3  0  2  1],4966.444444444444,31.444444444444443,crit,0.1111111111111111
17818,Canadian screw,17818,8,[ 1  3 -1 -1  2  3 -1 -2],6825.875,30.0,crit,0.5
15830,Canadian sufferer,15830,10,[-2  3  1 -2  2  3 -3  3 -1 -3],3799.0,35.9,crit,0.1
12145,Canadian summary,12145,14,[-3 -3 -2  1 -2  2 -2  0  1  2 -2  3 -2  3],3213.0714285714284,35.857142857142854,crit,-0.2857142857142857
19438,Canadian taxi,19438,12,[ 2  3  3  3  2  3  3  3  3  1 -3  3],3254.0833333333335,34.666666666666664,crit,2.1666666666666665
2334,Canadian text-decoration,2334,9,[-3 -1 -2 -3  0 -2 -3  1 -1],9404.0,33.22222222222222,crit,-1.5555555555555556
7757,Canadian tobacco,7757,12,[3 0 3 3 3 2 3 3 3 3 3 3],3941.3333333333335,29.333333333333332,crit,2.6666666666666665
5640,Canadian trouble,5640,11,[-3  3 -1  1  3  3  2  0  1 -3 -3],4446.181818181818,35.45454545454545,crit,0.2727272727272727
7291,Canadian turn,7291,13,[-3  0 -3 -3 -2 -1 -3  1 -2 -1 -2 -2 -3],4544.923076923077,30.923076923076923,crit,-1.8461538461538463
4803,Canadian warrant,4803,12,[-2  3  1  0  2  0  2  1  2 -2  3  3],6395.833333333333,29.75,crit,1.0833333333333333
10365,Canadian whale,10365,12,[-2  1  3  3 -2  3  3  2  3  3  2 -2],12852.5,35.416666666666664,crit,1.4166666666666667
6160,Canadian worship,6160,10,[-3  3  2  2  1  2 -3 -3  3  2],4144.9,27.3,crit,0.6
12725,Catholic angel,12725,9,[ 0  3  2  0  2  3  1  3 -2],8549.111111111111,30.22222222222222,crit,1.3333333333333333
13951,Catholic anyone,13951,11,[-1 -3  2 -1 -3  1  3 -3  0 -3  2],4189.636363636364,30.09090909090909,crit,-0.5454545454545454
4985,Catholic arm,4985,8,[-3 -2 -3  1 -3 -2  0  0],3668.0,36.875,crit,-1.5
4304,Catholic bean,4304,13,[-3 -3 -3  2 -3  0 -1 -1 -3 -3 -3 -3 -3],3685.076923076923,38.15384615384615,crit,-2.076923076923077
17272,Catholic blow,17272,9,[-3 -2 -3 -3 -1 -2  2 -3  2],5012.222222222223,35.77777777777778,crit,-1.4444444444444444
2990,Catholic brigade,2990,11,[ 0 -3  2  3  1  2 -2  0  3 -1 -3],5807.636363636364,32.4,crit,0.18181818181818182
3680,Catholic classic,3680,9,[ 2  0  2 -1  3 -1 -3 -2 -3],3961.8888888888887,32.22222222222222,crit,-0.3333333333333333
275,Catholic dancing,275,10,[ 3 -1 -1  2 -2  0 -3 -3  2 -2],3493.3,31.5,crit,-0.5
7254,Catholic emails,7254,10,[ 2  3 -1 -3  0 -1  3  2 -3 -2],3622.5,39.8,crit,0.0
3453,Catholic emotion,3453,16,[-2  2  1  1 -2 -3  3 -3  3  2 -1  0 -1  1  1 -3],2949.3125,27.0,crit,-0.0625
11806,Catholic excellence,11806,8,[-2  2 -2  3  3  3  2 -3],3591.625,30.875,crit,0.75
12055,Catholic exploration,12055,10,[ 3 -2 -3 -3  2  2  3  1  1 -3],3609.4,40.1,crit,0.1
17458,Catholic finale,17458,9,[-3 -3 -3  2  0  3 -3  0 -1],4176.888888888889,37.44444444444444,crit,-0.8888888888888888
9415,Catholic fridge,9415,9,[-3 -2 -3 -3 -3 -2 -3 -3 -3],2701.1111111111113,35.333333333333336,crit,-2.7777777777777777
9407,Catholic gun,9407,11,[-2 -3 -1 -3 -3  1 -3 -3 -1 -3 -3],4286.727272727273,34.90909090909091,crit,-2.1818181818181817
1527,Catholic illustration,1527,10,[-3  0  2  2  2  3  3  3  2  3],2879.0,31.8,crit,1.7
2434,Catholic injustice,2434,8,[-2  3  1  0  2  2  2  1],3578.125,32.5,crit,1.125
5226,Catholic knife,5226,9,[-3 -3 -3 -2 -1  3  3 -3 -1],3238.8888888888887,30.22222222222222,crit,-1.1111111111111112
17457,Catholic leg,17457,9,[-1 -3 -3 -1 -3 -1 -3 -1 -2],3219.777777777778,32.333333333333336,crit,-2.0
10370,Catholic liver,10370,8,[-3  0 -3  2 -3  3 -3  3],3470.0,39.0,crit,-0.5
18524,Catholic making,18524,12,[ 1 -2 -3 -3 -2 -1  1 -3  0 -3 -3  0],4612.666666666667,33.083333333333336,crit,-1.5
9451,Catholic misuse,9451,9,[ 2  3 -3  0  1 -2  1 -1  0],4322.888888888889,36.77777777777778,crit,0.1111111111111111
9646,Catholic repair,9646,13,[ 0 -3 -1 -1 -3 -3 -1  1 -3 -2 -2 -3 -1],5295.7692307692305,34.0,crit,-1.6923076923076923
8420,Catholic revenue,8420,11,[ 0  0  1 -3  2  2  3  1  3  0 -2],6329.181818181818,38.18181818181818,crit,0.6363636363636364
1739,Catholic routine,1739,9,[3 3 3 2 0 3 3 2 3],3757.1111111111113,39.22222222222222,crit,2.4444444444444446
1723,Catholic runner,1723,11,[ 3  1 -2 -2  0  3  3  2 -1  3 -1],4170.909090909091,39.0,crit,0.8181818181818182
6110,Catholic skill,6110,15,[ 2  0 -3 -3 -1 -2  1 -2  1 -3  2  0 -2  0  0],4048.866666666667,34.2,crit,-0.6666666666666666
1092,Catholic tape,1092,10,[-2 -2  0 -3  3 -3  0 -1  3  1],3421.6,32.0,crit,-0.4
6641,Catholic toilet,6641,17,[-1 -3  0  3 -3 -3 -3 -2  1 -3 -1  2 -1 -1 -3 -2  2],4804.470588235294,30.235294117647058,crit,-1.0588235294117647
13970,Catholic trout,13970,11,[-3 -3 -3 -1 -1 -2 -3 -3 -3 -3 -3],5546.090909090909,29.363636363636363,crit,-2.5454545454545454
5023,Catholic truck,5023,12,[-3 -3 -1 -3 -1  0 -3  2 -1 -2 -3 -3],6782.333333333333,26.5,crit,-1.75
9849,Catholic well-being,9849,11,[ 0  1 -3 -2  2 -2 -2  3  2  2  3],3159.5454545454545,31.272727272727273,crit,0.36363636363636365
5311,Chinese absorption,5311,12,[-2  3  0  2 -3  2 -3 -2 -3 -2 -2 -1],6097.333333333333,32.5,crit,-0.9166666666666666
12976,Chinese accessibility,12976,9,[ 1  3  3  1  3 -3 -3  1 -1],4913.444444444444,34.22222222222222,crit,0.5555555555555556
17486,Chinese alteration,17486,8,[-3 -3 -2  0  0 -1  2  1],6911.875,32.125,crit,-0.75
14,Chinese broadband,14,9,[-3  3  2  1 -3  3  1  3  3],4449.111111111111,38.666666666666664,crit,1.1111111111111112
3159,Chinese darkness,3159,9,[-1 -1  1 -3 -3 -2  0  1 -3],4301.111111111111,43.111111111111114,crit,-1.2222222222222223
6652,Chinese dissertation,6652,12,[ 3 -2  1  0 -2  0 -3  2  3  0 -1  3],5039.5,32.25,crit,0.3333333333333333
19411,Chinese eligibility,19411,12,[-3  3  3  3  1 -3  1 -2  3  2  3 -2],3939.25,42.083333333333336,crit,0.75
263,Chinese emergence,263,9,[ 3  3  2  0 -3  2  2  2  2],4806.777777777777,34.111111111111114,crit,1.4444444444444444
17420,Chinese herd,17420,8,[-3 -3 -3 -3  1  2  3  3],4504.75,36.0,crit,-0.375
9374,Chinese maximum,9374,12,[-3 -1 -3  3  0 -3  3 -3 -1 -3 -1 -3],7350.916666666667,38.166666666666664,crit,-1.25
17460,Chinese outreach,17460,11,[ 0  3 -1  2 -3  1 -1  3  1 -1 -3],5606.636363636364,31.272727272727273,crit,0.09090909090909091
2755,Chinese plasma,2755,9,[-1 -1  1 -1  3 -2  1 -3  3],3765.3333333333335,29.555555555555557,crit,0.0
18218,Chinese restoration,18218,10,[ 2  1  3  3  3  2  2  2 -3  2],7688.0,26.2,crit,1.7
3130,Chinese separation,3130,12,[-2 -3 -3 -3  0  1  1  2  3  2 -3 -2],3376.8333333333335,37.5,crit,-0.5833333333333334
13939,Chinese subsection,13939,11,[ 2 -3 -2 -2  1 -3  3 -3  1  1  2],3849.3636363636365,32.09090909090909,crit,-0.2727272727272727
18899,Chinese vowel,18899,10,[3 3 3 3 3 2 3 2 3 2],3269.0,27.4,crit,2.7
14744,Christian airline,14744,8,[ 1 -1  3  2  1 -1  1  0],3476.875,32.0,crit,0.75
14758,Christian arc,14758,14,[ 2  0 -1 -2  0 -1 -3 -3 -3  2 -3 -1 -1  2],9431.07142857143,32.42857142857143,crit,-0.8571428571428571
9799,Christian arcade,9799,9,[ 2 -1 -3  3 -3  0  1 -3  0],4219.888888888889,33.888888888888886,crit,-0.4444444444444444
7390,Christian basement,7390,10,[ 1 -3  3 -2  1 -1  0 -3 -3  3],9890.9,35.3,crit,-0.4
165,Christian cable,165,14,[-3 -3 -3  2 -3 -3 -3 -2  3 -1  1 -2 -3  3],3406.214285714286,38.07142857142857,crit,-1.2142857142857142
11851,Christian container,11851,10,[-3 -3  0  2  3  2 -1 -2 -3 -2],5274.8,26.3,crit,-0.7
8505,Christian disability,8505,11,[-3 -1 -2 -3 -1  1 -3 -3 -3 -3 -2],4519.545454545455,28.454545454545453,crit,-2.090909090909091
5189,Christian drug,5189,8,[-3 -2 -2 -2 -3  0 -2 -2],2677.25,41.0,crit,-2.0
9406,Christian expertise,9406,10,[ 1  3  2  2  3 -1  3  3 -3  0],4198.3,35.2,crit,1.3
8434,Christian fighting,8434,12,[ 1  2  3  3  0  2  2 -2 -3 -2  1 -3],5338.583333333333,30.666666666666668,crit,0.3333333333333333
13581,Christian gravel,13581,9,[-3 -3 -3  0 -3 -1 -1 -3 -3],6083.444444444444,28.666666666666668,crit,-2.2222222222222223
13258,Christian illusion,13258,10,[-2 -1  1  3 -3  1  3  1  0  1],3859.3,35.3,crit,0.4
14516,Christian keywords,14516,16,[ 1  1  2  1  2  1  3  3 -2  0 -2 -3  0  3  1 -3],4985.9375,30.1875,crit,0.5
10319,Christian limestone,10319,12,[-3 -3  3 -3 -3 -3 -3 -2 -2  3 -1 -3],6200.75,36.54545454545455,crit,-1.6666666666666667
2377,Christian mile,2377,10,[-3  2 -2 -3 -2 -3 -3  1  2 -2],4848.1,29.2,crit,-1.3
17448,Christian removal,17448,10,[ 3  2  1  3  3 -3 -3  3 -3 -3],4565.0,27.8,crit,0.3
9429,Christian rifle,9429,10,[-2 -3 -3 -2 -3 -3  1  0 -2 -3],3831.0,34.0,crit,-2.0
2387,Christian rivalry,2387,9,[-1  1 -1  2  2 -2  0  1  3],2864.6666666666665,33.111111111111114,crit,0.5555555555555556
9436,Christian sand,9436,8,[-3 -3  1 -3 -3 -1 -3 -2],3496.875,36.125,crit,-2.125
4200,Christian shirt,4200,10,[2 3 3 1 2 0 2 0 3 0],3065.6,28.3,crit,1.6
15877,Christian sibling,15877,10,[ 3  3 -1 -3  3  3  2  3  2  3],3237.4,31.0,crit,1.8
11016,Christian switch,11016,9,[-3 -3 -3  1 -3 -2 -3 -3 -3],5387.111111111111,33.44444444444444,crit,-2.4444444444444446
1188,Christian tier,1188,11,[-3 -2  2  1  2  1 -3  0 -3 -2 -3],3767.090909090909,36.36363636363637,crit,-0.9090909090909091
3472,Christian void,3472,15,[-1  0 -1  2 -1 -1 -3 -2 -3 -2 -3  2  1  2 -2],3701.866666666667,30.8,crit,-0.8
17413,Christian waste,17413,10,[ 0 -3 -3 -1  1  1 -3 -3 -3 -1],18397.1,31.4,crit,-1.5
19194,Christian weed,19194,9,[-3 -3 -3 -3 -2 -1  3  0 -3],5708.111111111111,27.333333333333332,crit,-1.6666666666666667
9430,Conservative ability,9430,9,[ 2  2  3  1 -2  1  3  3  3],3595.6666666666665,46.22222222222222,crit,1.7777777777777777
63,Conservative arc,63,1149,[-3  3  1 ... -2  0 -2],5207.102697998259,34.11933797909408,anti,-0.22628372497824195
12583,Conservative beam,12583,8,[-3 -2 -2 -3 -3 -3 -3 -3],3241.25,29.375,crit,-2.75
15578,Conservative beauty,15578,12,[ 3  1  2  2  3  3  2  2  2  2 -2  3],5751.5,32.916666666666664,crit,1.9166666666666667
17241,Conservative cargo,17241,12,[-2  2 -2 -3 -2 -2  0 -2 -3 -3 -3  2],6531.416666666667,32.583333333333336,crit,-1.5
17804,Conservative cart,17804,10,[-2  3 -3 -3 -1 -1 -3 -1 -3 -3],3143.0,29.0,crit,-1.7
5540,Conservative cat,5540,13,[ 0  1 -2  0 -3 -3 -3 -2 -3 -1 -3 -3 -1],4865.307692307692,42.15384615384615,crit,-1.7692307692307692
7382,Conservative charity,7382,9,[-1  3  2  3  2  0 -1 -3  2],5229.111111111111,30.555555555555557,crit,0.7777777777777778
18038,Conservative computer,18038,9,[ 1 -3 -3 -3 -3  3 -3 -3 -2],3127.8888888888887,30.666666666666668,crit,-1.7777777777777777
11456,Conservative concentration,11456,13,[-3  1  1 -1  0  2  0  1 -3  0 -2  1  3],18350.076923076922,29.307692307692307,crit,0.0
2815,Conservative contamination,2815,11,[-3 -3 -2 -2 -3 -3 -3  3 -3 -3  0],4195.727272727273,34.63636363636363,crit,-2.0
19635,Conservative dependence,19635,12,[-1  0 -3  2 -2  2  2  2 -3  1 -3 -3],4895.5,32.416666666666664,crit,-0.5
13839,Conservative equation,13839,11,[ 1 -3  2  0 -2 -2  2  0  0 -3 -2],4719.0,31.545454545454547,crit,-0.6363636363636364
732,Conservative fax,732,11,[-2  2 -1 -3 -1  0 -2 -3  2 -1 -1],5186.363636363636,28.454545454545453,crit,-0.9090909090909091
6322,Conservative foreigner,6322,10,[ 2  3 -3  3  2  3  3  3  2  1],4619.2,32.8,crit,1.9
15339,Conservative knight,15339,13,[ 3  2  2  3  3 -3  0  1  0  1  0  2 -1],3832.230769230769,36.38461538461539,crit,1.0
17475,Conservative medal,17475,10,[-2 -1  3  3 -2  3 -2  1  1  2],5763.0,35.7,crit,0.6
5170,Conservative microscope,5170,12,[-1 -3 -3 -3 -2  0 -2 -3 -3 -3 -1 -3],3271.25,33.5,crit,-2.25
13915,Conservative organism,13915,11,[-3 -2  1 -3 -2  2 -2  1  3 -3 -3],4365.818181818182,35.63636363636363,crit,-1.0
15682,Conservative outbreak,15682,11,[ 1  2 -1  1  3 -3 -3  3  2 -3  0],5715.454545454545,30.636363636363637,crit,0.18181818181818182
4481,Conservative outline,4481,14,[ 3 -1  3 -1 -2  0 -3  3 -2  2  3  3  3 -2],4618.5,36.42857142857143,crit,0.6428571428571429
17491,Conservative paperback,17491,9,[ 2 -3 -3 -3  0 -3 -3 -3  2],7371.333333333333,29.11111111111111,crit,-1.5555555555555556
16555,Conservative parasite,16555,10,[-3  0  1  3 -3 -1  1 -2  3  2],5394.5,33.5,crit,0.1
19994,Conservative permit,19994,10,[-3 -3  2 -2 -3 -1 -2 -3 -2 -3],2911.5,32.0,crit,-2.0
15499,Conservative prison,15499,8,[ 1  1 -1  1  0  2  3 -1],4249.875,41.875,crit,0.75
18591,Conservative procurement,18591,9,[ 0 -3 -2  2 -3  0  2  3  2],4830.444444444444,37.77777777777778,crit,0.1111111111111111
9472,Conservative quarry,9472,11,[-2  3  1 -3 -3  1 -2  0 -3 -3 -3],4786.181818181818,33.63636363636363,crit,-1.2727272727272727
19140,Conservative quotation,19140,8,[ 2  2  1  2 -2  3  3  3],7423.625,39.5,crit,1.75
2476,Conservative robot,2476,14,[-2  2  2  1  3 -3  1  3  2  1 -2  0 -3 -2],5147.714285714285,42.857142857142854,crit,0.21428571428571427
12867,Conservative sailing,12867,9,[-3  0 -1  1 -1 -3  3  0 -3],6306.333333333333,37.333333333333336,crit,-0.7777777777777778
4656,Conservative sponsorship,4656,12,[ 3 -2  1  2  3 -2  2  3  1  2  3  1],4452.0,32.583333333333336,crit,1.4166666666666667
5405,Conservative strip,5405,13,[-1 -3  0 -3 -2 -3  3  3 -2 -1 -3  3 -1],5411.307692307692,34.23076923076923,crit,-0.7692307692307693
17498,Conservative summary,17498,11,[-3  1  2  2  3 -2  3  3  1 -2  2],4389.181818181818,37.09090909090909,crit,0.9090909090909091
7113,Conservative sustainability,7113,11,[ 0  0  3  1  0 -1  1  2  3  0  1],8962.363636363636,38.90909090909091,crit,0.9090909090909091
3171,Conservative syndrome,3171,13,[-2  2 -2 -3 -3 -3 -2 -3  1  3 -2  3 -1],3675.153846153846,29.923076923076923,crit,-0.9230769230769231
19011,Conservative uprising,19011,8,[0 3 2 3 3 3 3 1],6694.5,30.125,crit,2.25
434,Conservative veteran,434,12,[ 2  2  2  3 -3  1  3  3  0  3  3  1],7132.083333333333,29.666666666666668,crit,1.6666666666666667
5537,Conservative wealth,5537,16,[ 0  0  2  3  1  0  2  3  1  3  0 -2  1  0  3  2],5115.0,37.25,crit,1.1875
7239,Conservative well,7239,11,[-3 -2  0 -3 -3 -3  0 -1 -2 -2 -3],5809.090909090909,35.90909090909091,crit,-2.0
8023,Danish acid,8023,12,[ 1  3 -1  1 -2 -1 -3 -1 -3 -2 -3 -2],5485.0,32.833333333333336,crit,-1.0833333333333333
8038,Danish ankle,8038,15,[-1  2 -3 -2  0 -3 -3 -2 -2 -2 -3 -2 -3 -2  0],4108.266666666666,35.266666666666666,crit,-1.7333333333333334
18401,Danish attraction,18401,9,[0 3 3 3 1 2 3 3 3],3326.777777777778,40.22222222222222,crit,2.3333333333333335
19846,Danish boiler,19846,8,[-1  2 -1  0  3  1  3  2],2860.75,27.125,crit,1.125
19833,Danish bow,19833,9,[ 3  3 -3  1 -3  3  1  3 -2],6944.555555555556,41.666666666666664,crit,0.6666666666666666
16581,Danish calculator,16581,13,[-3  2  3 -2 -3  1 -3  0 -3  3  2  2  2],4678.615384615385,30.46153846153846,crit,0.07692307692307693
7182,Danish chord,7182,15,[-1  0 -3  3 -2 -2  1  1  2 -3  2 -3 -3 -2 -1],5037.0,37.8,crit,-0.7333333333333333
2421,Danish climb,2421,14,[-2 -3 -1 -1  1 -3 -3 -1 -3  2  3 -3 -2  1],3772.785714285714,39.0,crit,-1.0714285714285714
12379,Danish controller,12379,14,[-2  0  1  3 -1  0  1  2  3  3 -1  0  0 -3],3492.3571428571427,39.142857142857146,crit,0.42857142857142855
6130,Danish costume,6130,10,[3 3 3 3 3 3 2 2 3 3],3123.4,38.7,crit,2.8
16245,Danish dealing,16245,15,[ 1 -3  2 -3 -2  2 -2  3 -2 -3  1 -3  1  1 -3],4533.466666666666,31.933333333333334,crit,-0.6666666666666666
1359,Danish dignity,1359,16,[-2  0  3 -2  1  1 -3  1  0  3  1  0  3  3  1 -2],3988.875,32.25,crit,0.5
2429,Danish epilepsy,2429,9,[-2 -3 -1 -3 -3 -3  0  1 -1],3030.0,32.22222222222222,crit,-1.6666666666666667
18935,Danish filing,18935,9,[-2 -1  2 -1 -3  3  3  1  2],5126.111111111111,34.22222222222222,crit,0.4444444444444444
12062,Danish fin,12062,10,[ 3 -2  0  0 -3 -3  3 -3  3  2],4766.2,36.6,crit,0.0
15608,Danish heading,15608,9,[-1 -3 -3  3  0 -2  1 -2  0],3651.5555555555557,31.555555555555557,crit,-0.7777777777777778
15284,Danish highlight,15284,9,[-3 -1  2  3  3 -2  3  0 -2],3642.6666666666665,43.0,crit,0.3333333333333333
6727,Danish implementation,6727,10,[3 1 1 0 3 1 3 2 3 1],5891.1,34.4,crit,1.8
13979,Danish insulin,13979,10,[ 3 -3 -3  2  3 -3 -3 -3  2 -3],3913.6,31.5,crit,-0.8
7006,Danish jacket,7006,19,[ 1 -2  0  1  3  2 -1  3  2  0  3 -1  3  1  0  3  3 -2  3],3892.5789473684213,32.94736842105263,crit,1.1578947368421053
5166,Danish journey,5166,14,[ 2  1  2 -3  3  1 -1 -3 -2  3  1  1  2  1],3198.1428571428573,34.714285714285715,crit,0.5714285714285714
4764,Danish monster,4764,15,[ 0  3  1  2  2 -3 -3  3  2 -2  3 -3 -2 -1  1],3995.0,30.533333333333335,crit,0.2
1948,Danish morality,1948,10,[ 3  0  3  1  3  3  3  3 -1  2],8573.1,35.8,crit,2.0
2448,Danish picnic,2448,8,[ 1  1  3  3  2  1 -1  3],4053.5,38.0,crit,1.625
3891,Danish playoff,3891,11,[ 2  3 -3  0  1 -3 -2 -1  0  0 -3],4301.181818181818,32.45454545454545,crit,-0.5454545454545454
1126,Danish positioning,1126,10,[-3  0 -3 -2 -1  3  1  0  2  1],6586.7,37.4,crit,-0.2
4010,Danish projection,4010,9,[-1  0 -2  0 -1 -3  2  2  2],10287.111111111111,37.55555555555556,crit,-0.1111111111111111
5962,Danish rain,5962,15,[-3  3  1  2  2 -3  1 -2 -3 -2  1  0 -1  3  1],6067.666666666667,29.4,crit,0.0
3514,Danish ride,3514,10,[-3  1 -3 -2  3 -2 -1  2  2  2],4217.1,34.1,crit,-0.1
6560,Danish rise,6560,9,[-3  1  3 -3 -1 -2  0  0 -3],5593.777777777777,39.333333333333336,crit,-0.8888888888888888
6607,Danish sediment,6607,11,[-3  1 -3 -3 -3  2 -3  0 -3 -2  3],8174.909090909091,33.72727272727273,crit,-1.2727272727272727
2406,Danish shoot,2406,9,[ 0 -2  1 -3  2  1 -3  1 -1],5037.444444444444,34.666666666666664,crit,-0.4444444444444444
2381,Danish spite,2381,10,[-2  1  1  0  0 -3 -2 -2  1  1],9416.0,35.6,crit,-0.5
16083,Danish suitability,16083,9,[-3 -1 -3  0 -1  3  2  1 -3],5729.555555555556,35.55555555555556,crit,-0.5555555555555556
8693,Danish technician,8693,12,[ 3 -3  3  0  3  2  3  2  2  3  3  3],3286.1666666666665,35.083333333333336,crit,2.0
2072,Danish terrorism,2072,40,"[ 2  1 -1  3 -1 -1  2  2  2 -3  3  0  0 -2  0  3 -2  3  3  3  0 -1  2  1
  3  3 -1  3 -3 -3 -3 -1  2  2  2  3  3  1  3  3]",4765.075,37.675,crit,0.9
3993,Danish timing,3993,11,[-1  0  1 -3  3 -2 -3  1 -3 -2  1],3526.818181818182,30.545454545454547,crit,-0.7272727272727273
19776,Danish transmission,19776,11,[-2  2  2  1 -3 -1 -3 -2  2 -3  3],6605.0,37.63636363636363,crit,-0.36363636363636365
1542,Danish uncertainty,1542,9,[-3 -3 -1 -2  1 -1 -3 -2 -1],4379.888888888889,26.88888888888889,crit,-1.6666666666666667
2788,Democratic advent,2788,11,[ 3 -2 -3  3  0  1  3  0  1 -2 -3],4962.818181818182,38.81818181818182,crit,0.09090909090909091
6179,Democratic bottom,6179,9,[ 1 -3 -3 -1 -3 -3  3  1 -2],3088.777777777778,33.22222222222222,crit,-1.1111111111111112
13259,Democratic canopy,13259,15,[-2 -3 -3 -3  0 -3  3 -3  2  1 -3 -3 -3 -3 -1],4191.866666666667,29.866666666666667,crit,-1.6
2438,Democratic chicken,2438,10,[-3 -3  0 -3 -3 -3 -3 -3 -3 -3],4119.9,34.3,crit,-2.7
6881,Democratic correspondence,6881,13,[ 3  1  3  3  1  0 -1  1  3  1  3  2  1],4156.076923076923,28.76923076923077,crit,1.6153846153846154
580,Democratic course,580,13,[ 3  3  2  1  3  2 -3 -2 -3  3  3  1  2],5434.153846153846,33.92307692307692,crit,1.1538461538461537
3882,Democratic dragon,3882,11,[-1 -3 -3 -3  3 -2 -1 -3  2 -3 -3],4615.090909090909,35.63636363636363,crit,-1.5454545454545454
4471,Democratic economy,4471,11,[ 0 -2  3  3  3  2  3  2  3  2  2],4200.727272727273,36.27272727272727,crit,1.9090909090909092
6336,Democratic heaven,6336,19,[ 2  0  2 -3 -3  3  2  2  3  3  1  0  2 -2 -2  3  0  2  0],4496.473684210527,31.42105263157895,crit,0.7894736842105263
15799,Democratic hole,15799,9,[ 1 -3 -3  3 -3  0  2 -3  1],3613.6666666666665,29.333333333333332,crit,-0.5555555555555556
10212,Democratic inning,10212,11,[-2  0  2 -3 -2 -2 -2 -2 -1 -3 -2],5109.818181818182,31.454545454545453,crit,-1.5454545454545454
2444,Democratic lake,2444,9,[-3 -2 -3 -3 -3 -3 -3 -1 -3],2614.777777777778,30.22222222222222,crit,-2.6666666666666665
16501,Democratic lamp,16501,10,[-1 -3 -3 -3 -2 -3 -2  3 -3 -3],3148.9,35.4,crit,-2.0
16794,Democratic litter,16794,10,[-2 -2 -1  1 -3 -3 -3 -2 -1  1],5542.7,30.4,crit,-1.5
12997,Democratic load,12997,11,[ 1 -3  3 -2  3  1 -3 -3  2 -1  0],5065.272727272727,41.09090909090909,crit,-0.18181818181818182
10113,Democratic material,10113,10,[ 0 -3  3 -3  3  0 -2  2  3  2],3648.4,38.4,crit,0.5
836,Democratic method,836,19,[ 2 -3  3  3  3  1  3  3  2  3  3  3  3 -2  2  3  3  3  2],3495.0,34.10526315789474,crit,2.1052631578947367
18501,Democratic nerve,18501,10,[ 2 -3  1 -2 -1  0 -3 -2  1 -2],3268.2,28.1,crit,-0.9
3596,Democratic numeracy,3596,14,[-2  0 -3 -3 -1 -2 -2 -2 -3  3  2  1  1 -3],4551.142857142857,35.5,crit,-1.0
14133,Democratic obesity,14133,10,[-2 -3 -3 -3 -1 -3 -1  3 -3 -3],5796.8,39.1,crit,-1.9
17495,Democratic poker,17495,10,[-2 -1 -3  3  0 -1 -3 -3  0 -3],3993.6,34.5,crit,-1.3
2405,Democratic postgraduate,2405,10,[-1  3  2 -2 -2  3  2 -2 -1 -1],4026.6,33.7,crit,0.1
3525,Democratic precaution,3525,15,[-2  3  3 -1  0 -2  1  0  0 -1  2 -3 -2  1 -3],4204.066666666667,32.46666666666667,crit,-0.26666666666666666
3602,Democratic presentation,3602,13,[1 3 3 3 2 0 1 1 3 3 2 1 3],4481.692307692308,34.23076923076923,crit,2.0
19151,Democratic province,19151,8,[ 1  0  2  3 -3 -1  3  3],3683.0,33.25,crit,1.0
2093,Democratic quantity,2093,45,"[-3  0  1 -2 -2 -2  1 -3 -3 -3 -1 -3 -3  1  1  3 -1 -2 -1 -3  1  2  3 -2
 -3 -3 -2 -2 -3  2  1  3 -3  0 -3 -2 -3 -3  1  0  0 -3 -1  0  3]",4418.044444444445,38.86666666666667,crit,-0.9333333333333333
15489,Democratic receptor,15489,11,[ 2 -3  1 -1 -3 -3 -3  2 -1 -2 -1],5721.909090909091,34.63636363636363,crit,-1.0909090909090908
1341,Democratic rifle,1341,13,[-3 -3 -2 -3 -3 -1 -3  0  1 -3 -2 -3  0],5635.461538461538,35.46153846153846,crit,-1.9230769230769231
2833,Democratic sediment,2833,9,[-3 -3 -3 -3  0  3 -3 -3  0],3760.777777777778,25.444444444444443,crit,-1.6666666666666667
3446,Democratic sentiment,3446,15,[ 2  3  2 -1  3 -2  2  3  3  2 -3 -3  2  2  3],3806.9333333333334,30.266666666666666,crit,1.2
889,Democratic soap,889,16,[-3 -3 -3 -3 -3 -3 -3 -3 -3 -1 -3  0 -2  3 -3 -3],3304.125,31.125,crit,-2.25
2167,Democratic strand,2167,12,[-3 -3  2 -3 -1  1  2 -2  1  2 -1  3],10983.833333333334,28.083333333333332,crit,-0.16666666666666666
12946,Democratic sudoku,12946,12,[ 0 -2 -3 -3 -3 -3 -3 -3 -3 -3 -3  0],3733.5,41.083333333333336,crit,-2.4166666666666665
2080,Democratic terrace,2080,42,"[-3  0  0 -3 -3 -3 -3 -3 -3 -3 -1 -3  1 -2  0 -2 -3 -3 -3  0 -1 -3 -3 -3
 -1 -3 -3 -3 -3 -1 -3 -3 -3 -3 -3 -3 -2 -3 -3 -3  0 -3]",4444.9047619047615,38.785714285714285,crit,-2.2857142857142856
2012,Democratic textbook,2012,43,"[ 3  0  3 -3 -3  1  3  1 -2  3  1  3  3  0  1  0 -2  3 -3  1  3  0  1  2
  2  2  0 -3  3  1  3 -3 -3 -2  3 -1 -3  0  2 -2  3 -2  3]",5287.302325581395,37.48837209302326,crit,0.5116279069767442
9508,Democratic wake,9508,12,[ 1 -1  2 -2  1 -2  0 -2 -3  0 -3 -2],3819.5833333333335,39.25,crit,-0.9166666666666666
10368,Democratic warrant,10368,12,[ 1 -3 -3 -2  2  3 -1  3  0 -2  1  2],12827.666666666666,32.833333333333336,crit,0.08333333333333333
2874,Democratic warrior,2874,11,[2 3 3 1 2 2 3 2 1 2 3],4532.181818181818,31.0,crit,2.1818181818181817
11274,Dutch atom,11274,15,[-3 -2 -3 -1  1  3 -2 -2 -3 -3 -3 -2  2 -3 -1],4418.733333333334,32.86666666666667,crit,-1.4666666666666666
3383,Dutch behalf,3383,13,[-2 -3  1 -3 -2 -3  1  0 -3  0 -3  1 -3],4079.6923076923076,30.692307692307693,crit,-1.4615384615384615
18302,Dutch bill,18302,13,[ 2 -1 -3  3 -1  3 -3  3  0  1 -2 -2  2],3330.5384615384614,33.84615384615385,crit,0.15384615384615385
2512,Dutch buffer,2512,11,[-2 -3  1  1 -2 -3 -2 -3  3  3  0],8530.90909090909,36.18181818181818,crit,-0.6363636363636364
1988,Dutch crater,1988,43,"[ 3 -3  0 -3  3 -2  3 -3  0 -3 -1 -3 -3  1  1 -2 -3 -3 -3 -3 -1  2  1  0
 -3  1  3  2 -3  0  2 -3 -3 -3 -3  0  3  0  1 -3 -2 -2 -3]",5485.604651162791,37.883720930232556,crit,-0.8837209302325582
7943,Dutch drainage,7943,15,[-2  3  3  0 -3  1  3 -1  1 -2 -1 -3 -3 -1  2],6578.933333333333,35.666666666666664,crit,-0.2
435,Dutch employability,435,11,[ 2  3  3  3 -3  3  0 -2  1  3  3],5401.909090909091,25.90909090909091,crit,1.4545454545454546
11577,Dutch extra,11577,8,[ 1 -2 -3 -1 -3 -1 -2 -1],5011.125,36.875,crit,-1.5
2356,Dutch foam,2356,8,[-3  3  1  1  2  2 -3  2],3450.5,41.875,crit,0.625
2024,Dutch grass,2024,43,"[ 3  1 -2 -3 -3  1  0  3 -3  1  1 -3 -2  3  1  0  1 -1 -3 -3  3  3  3 -3
  1  1  1  1  3  3 -3 -3  3 -1  1  0  0  1 -2 -1  0  0  3]",3309.3488372093025,36.906976744186046,crit,0.13953488372093023
5004,Dutch habitat,5004,11,[ 0  3  1  2  3  0 -2  3  1  3  3],4138.272727272727,34.63636363636363,crit,1.5454545454545454
6419,Dutch packet,6419,11,[ 3  3  3  0 -3  3  3 -1  0  1  2],5131.727272727273,26.636363636363637,crit,1.2727272727272727
6593,Dutch push,6593,12,[-2 -1 -3  0  1 -3 -3 -3  1 -3 -1 -3],4621.75,32.333333333333336,crit,-1.6666666666666667
2632,Dutch radiator,2632,12,[ 3  0 -2 -3  2 -3  0  3  2  1 -2  1],5311.583333333333,36.666666666666664,crit,0.16666666666666666
11346,Dutch rape,11346,9,[ 2 -1 -1 -1 -3 -2  0 -2 -3],4636.888888888889,27.333333333333332,crit,-1.2222222222222223
2392,Dutch recorder,2392,14,[ 1  3  1  2  2  2 -2  1  0  1  3  3  1  3],9453.714285714286,41.07692307692308,crit,1.5
3435,Dutch reservation,3435,16,[ 2  2 -3  2  0 -3  2  1  2  3  1 -3  2  2  1 -3],6036.0,33.375,crit,0.5
11271,Dutch scripture,11271,11,[ 2  1 -1  0  3  3  0  2  0  1  1],5488.636363636364,37.09090909090909,crit,1.0909090909090908
19494,Dutch software,19494,8,[3 0 2 2 2 3 1 3],3344.875,32.0,crit,2.0
6854,Dutch temptation,6854,11,[-1 -3  0 -3 -3  3  0 -3 -3 -3  1],5034.909090909091,36.0,crit,-1.3636363636363635
13551,Dutch throat,13551,8,[ 0  1  2 -1 -3 -3 -3 -3],4931.625,35.0,crit,-1.25
4104,English accessibility,4104,14,[ 0  2  3 -1  1 -2  2  3  2  1  3  2 -2  2],4427.714285714285,29.071428571428573,crit,1.1428571428571428
1866,English cleaning,1866,9,[ 2  0  1 -3 -3 -3 -2 -3 -3],3740.4444444444443,32.55555555555556,crit,-1.5555555555555556
5763,English communion,5763,16,[ 1  3  2 -2  0  2 -2  2 -1  2  0  2 -3  3  2  2],3943.625,39.125,crit,0.8125
3550,English medication,3550,11,[ 2 -1  2  3  0 -3  0  3  1  3  3],3218.818181818182,32.90909090909091,crit,1.1818181818181819
12595,English merit,12595,12,[ 2 -3  0 -1  1  3  0  1 -3  1  1 -3],3308.3333333333335,27.5,crit,-0.08333333333333333
3794,English negligence,3794,12,[ 2  2  2  0 -3  2  2  3  1  1  0  0],5015.75,31.416666666666668,crit,1.0
12704,English popularity,12704,10,[0 2 2 2 3 2 2 3 1 3],2737.0,33.2,crit,2.0
11033,English reconciliation,11033,8,[-2  0 -2 -1 -1 -2 -1 -1],13868.875,32.25,crit,-1.25
2757,English strap,2757,12,[-3 -2 -1 -2  3  0 -1 -1  0 -3 -3 -3],4224.0,32.666666666666664,crit,-1.3333333333333333
12764,European arc,12764,11,[-1 -1  1  3 -1  0 -3 -3 -2  2  3],4444.0,29.272727272727273,crit,-0.18181818181818182
11730,European bin,11730,10,[-1  3 -3  3 -3  3 -3  3  0  3],3307.2,32.8,crit,0.5
12304,European bowl,12304,14,[ 1  0 -1  3  3  3  3  3  2 -3  3  3 -1  2],9985.785714285714,32.714285714285715,crit,1.5
17780,European breadth,17780,8,[ 1 -3 -3 -2 -1 -1 -1 -1],4415.75,38.5,crit,-1.375
27,European bush,27,9,[ 3  1  1  1  1 -1 -3  3  1],3164.8888888888887,33.333333333333336,crit,0.7777777777777778
16197,European diabetes,16197,9,[-3 -2  1  3 -3  2 -2  2 -3],6564.333333333333,41.666666666666664,crit,-0.5555555555555556
2546,European dignity,2546,12,[ 3 -3  1  3  1  3  3 -2 -3  1  2  3],12523.583333333334,33.083333333333336,crit,1.0
1012,European dollar,1012,11,[-2  3 -3  3 -3 -1 -3  3  2 -3 -3],6647.090909090909,32.09090909090909,crit,-0.6363636363636364
3676,European minute,3676,9,[-1 -1 -3  0 -3  2 -3  2  2],5334.222222222223,33.55555555555556,crit,-0.5555555555555556
5810,European radar,5810,16,[ 3 -1  0  1 -2  3  3  0  2  2  1  2  3  3  0  3],3424.8125,38.8125,crit,1.4375
11959,European redundancy,11959,12,[ 2 -3  1 -1  3 -3 -2  2  0  1 -1  2],4959.083333333333,32.916666666666664,crit,0.08333333333333333
2413,European staircase,2413,8,[ 2  2  3  2  1 -3  0  1],4499.625,33.875,crit,1.0
19382,European trunk,19382,15,[-3  3  3  2  3 -3 -1 -3  2  0  2  0  3 -3 -2],4128.866666666667,38.46666666666667,crit,0.2
10935,French canopy,10935,8,[ 0 -1  3 -3  3 -2 -3  3],4207.25,31.0,crit,0.0
6564,French competence,6564,10,[ 3 -3 -3  3  3  2  3  0 -2  3],4064.4,35.4,crit,0.9
2918,French dioxide,2918,10,[-3 -2 -3 -1 -2 -3 -2 -3 -3 -3],5257.3,41.1,crit,-2.5
17866,French disappointment,17866,9,[ 1 -2 -2 -2  2  2 -2  3  3],3369.0,31.11111111111111,crit,0.3333333333333333
12666,French disclosure,12666,10,[ 1 -2 -3  2  3  3 -1 -3  3 -3],5116.6,38.5,crit,0.0
9322,French forefront,9322,11,[ 0  0 -3  2 -3  3  0 -1  3 -3 -1],5970.727272727273,30.09090909090909,crit,-0.2727272727272727
7701,French fur,7701,13,[ 2  3  1  2  3  3  2  2  1 -2 -1 -3  2],3219.769230769231,33.30769230769231,crit,1.1538461538461537
3545,French guardian,3545,14,[ 3  3  1  3  3  3  3  3 -3  3  2 -1  1  1],3143.714285714286,32.42857142857143,crit,1.7857142857142858
15392,French litre,15392,11,[-3  3 -3 -3 -1  0 -2 -1  0  3 -3],4052.090909090909,37.36363636363637,crit,-0.9090909090909091
4553,French minimum,4553,8,[ 3 -1  2 -2 -3 -3 -2 -3],4126.5,43.625,crit,-1.125
10150,French nitrogen,10150,9,[ 0 -3 -3 -3  0  1 -2 -1  3],5769.444444444444,38.22222222222222,crit,-0.8888888888888888
5193,French stomach,5193,10,[-2 -3 -3 -2 -3 -2 -3  2  0 -3],3226.6,32.8,crit,-1.9
1830,French substitution,1830,15,[ 1  2  0  3 -2 -3 -2 -2  1  1  3  1  1  3  2],7511.066666666667,29.066666666666666,crit,0.6
1436,French wait,1436,9,[-3 -3 -3 -1 -3  1 -3 -1 -3],2584.222222222222,28.333333333333332,crit,-2.111111111111111
2498,German assignment,2498,9,[2 2 3 1 3 3 2 2 1],5081.444444444444,32.888888888888886,crit,2.111111111111111
4724,German browser,4724,10,[ 3  2  3  3  1  0  3  1 -2  0],6413.8,29.9,crit,1.4
4973,German consulting,4973,12,[ 0  3  3  1  3  0  3  3  2  3  3 -3],3480.8333333333335,28.916666666666668,crit,1.75
14567,German decrease,14567,12,[-1 -1  1  2  0 -3 -2 -2 -3 -3  2  0],3983.0,40.083333333333336,crit,-0.8333333333333334
5998,German disability,5998,13,[-3  3 -2 -3  0 -3 -3 -2 -3 -3 -3 -3 -3],4537.384615384615,36.46153846153846,crit,-2.1538461538461537
12129,German hook,12129,10,[ 0 -2  1  0  0  3 -1 -3  3  0],3870.2,33.8,crit,0.1
5830,German impulse,5830,20,[ 1  1 -3  1  2 -2 -1 -3  1  2  1 -3  0 -3 -2  2 -2  3 -2  1],5321.5,36.05,crit,-0.3
5743,German indicator,5743,16,[ 1  1 -1 -1 -2  3 -1  1 -1 -3 -3  2 -1  3  0  2],6341.6875,37.5,crit,0.0
18374,German journey,18374,11,[-1  3  0  3  2  1  1  3  3 -2  1],4372.545454545455,29.727272727272727,crit,1.2727272727272727
7007,German lock,7007,11,[-1 -3  0  2  0  3  3  3  3  3  0],4695.272727272727,33.36363636363637,crit,1.1818181818181819
6862,German luxury,6862,14,[ 1  3  3  3  2  3  2  2  3 -1  3  1  3  1],3369.214285714286,31.285714285714285,crit,2.0714285714285716
15718,German modem,15718,10,[ 2  3  2  0  1 -3 -1  3  3  3],8928.9,31.4,crit,1.3
12063,German negligence,12063,11,[ 3 -1  1  3  2  1  3  1  3  3  3],4377.545454545455,33.63636363636363,crit,2.0
4223,German queue,4223,11,[ 3  3  2  1  2 -1 -1 -1 -3  1 -3],5274.818181818182,36.18181818181818,crit,0.2727272727272727
6341,German suspension,6341,10,[ 3  3 -3  3  1  3  3  0 -3 -1],3665.4,27.5,crit,0.9
4446,German tear,4446,13,[ 1  3 -1 -3 -3 -3  1 -3  1  3  1 -1  3],3669.6923076923076,29.307692307692307,crit,-0.07692307692307693
5898,German terminal,5898,19,[ 3 -3  3 -1  1  1  0  3  1  3 -1  2  3  3  2  2 -2  1 -3],3668.157894736842,40.526315789473685,crit,0.9473684210526315
5870,German urine,5870,16,[ 3 -1 -2 -3 -2 -3  1 -1  2  2 -3  1  1 -1  1 -2],3423.375,41.875,crit,-0.4375
4967,Greek badge,4967,12,[ 1  0  0  0  2 -1 -3 -1  2 -1  3  3],4010.8333333333335,28.916666666666668,crit,0.4166666666666667
9353,Greek bag,9353,11,[ 3  3 -1  3  1  2 -1 -1  2  3  3],3550.090909090909,33.27272727272727,crit,1.5454545454545454
17124,Greek baptism,17124,12,[ 2  2  3  1  3  3  3  1  3 -3  1  3],4802.666666666667,33.583333333333336,crit,1.8333333333333333
4064,Greek basement,4064,12,[-3  2 -3  0 -3  3 -3  3  2  0 -3  2],6014.166666666667,35.5,crit,-0.25
15893,Greek blanket,15893,9,[ 3  1 -2  3  2  2  3 -2 -3],4313.0,37.44444444444444,crit,0.7777777777777778
1438,Greek capture,1438,11,[-2  0  1 -2 -3 -1  2  0 -2  0 -2],4814.454545454545,36.72727272727273,crit,-0.8181818181818182
11710,Greek clause,11710,11,[-3  3 -1 -3 -2  3  0 -1 -2 -2 -2],4229.090909090909,37.45454545454545,crit,-0.9090909090909091
15676,Greek configuration,15676,10,[ 2  2 -1 -3 -3  1  3 -1  2  3],3433.8,27.1,crit,0.5
19155,Greek crap,19155,10,[ 3 -3  2 -2  1  3 -3  3  1  2],4916.9,36.8,crit,0.7
4979,Greek dock,4979,11,[ 1  0  1 -3  2  0  2 -3  3  1 -3],17804.636363636364,38.45454545454545,crit,0.09090909090909091
17451,Greek encouragement,17451,9,[-2 -2 -3  2  1  2  1  3 -2],4407.333333333333,32.888888888888886,crit,0.0
12576,Greek greenhouse,12576,13,[-2  3 -1  3  3  0 -3  1 -1  1  2  2  1],4989.7692307692305,33.61538461538461,crit,0.6923076923076923
12272,Greek hill,12272,8,[-1 -3  3  3  2  0  3 -1],3929.75,34.75,crit,0.75
15435,Greek hydrogen,15435,12,[-2 -3 -2  3  2  1 -3  0 -3 -2 -2 -3],9646.583333333334,32.166666666666664,crit,-1.1666666666666667
12283,Greek pest,12283,8,[-3 -2  2  1 -1  2 -2 -3],6289.0,31.125,crit,-0.75
2505,Greek precaution,2505,8,[ 0 -1  1  0  3  3  1 -3],3062.75,37.875,crit,0.5
11073,Greek publicity,11073,11,[-1  0  2 -3  3  3  2  0  0  0 -3],6022.090909090909,41.0,crit,0.2727272727272727
9745,Greek resurrection,9745,9,[ 2  0  1  2 -2  0  0  3 -3],3967.6666666666665,33.333333333333336,crit,0.3333333333333333
7564,Greek rubbish,7564,10,[ 3  1  0  3  3 -3  2  1  0 -3],3795.8,39.7,crit,0.7
19055,Greek severity,19055,11,[-3 -1  2  3 -2  1  2  2 -3  1  1],4374.818181818182,32.18181818181818,crit,0.2727272727272727
8539,Greek staircase,8539,12,[ 1  3  2  2  3  3  2 -2  3 -1 -3  1],3470.5833333333335,36.0,crit,1.1666666666666667
12257,Greek stimulus,12257,11,[-3 -3 -2 -3  1 -3 -2 -3 -2  0  1],4871.909090909091,34.45454545454545,crit,-1.7272727272727273
9815,Greek storyline,9815,9,[ 3  2  2  3  3  3 -2  1  1],3195.8888888888887,36.111111111111114,crit,1.7777777777777777
12113,Greek workload,12113,16,[ 3 -2 -1  1 -1 -2  1 -2 -3  1 -2 -2 -3 -3  0  1],4283.25,32.0625,crit,-0.875
16973,Indian abortion,16973,10,[ 3  0 -3  0  0  3  3  2 -3 -3],4597.4,36.7,crit,0.2
16993,Indian decay,16993,10,[-1  1 -2  1  0  1  0 -1 -3 -1],4180.1,36.6,crit,-0.5
1312,Indian fantasy,1312,10,[2 2 3 2 3 3 3 0 2 1],4520.7,36.2,crit,2.1
4958,Indian favor,4958,8,[ 1 -2  3  0 -1  0  1 -1],6295.625,40.875,crit,0.125
7109,Indian favour,7109,12,[-2 -3 -3 -3  2 -1 -3 -1 -3 -3  2 -1],5592.0,37.166666666666664,crit,-1.5833333333333333
272,Indian firearm,272,12,[ 3  3  2 -3  2 -2  2  3  0  3  3  2],6167.666666666667,32.25,crit,1.5
1113,Indian hell,1113,10,[-3  1 -2  2  1 -2 -3  1  3  1],3887.4,29.8,crit,-0.1
5745,Indian landfill,5745,17,[ 3  2 -2  2 -1  1  2 -1  2  1  2  3  3  2  2  3 -1],8708.588235294117,40.94117647058823,crit,1.3529411764705883
12096,Indian litigation,12096,12,[ 1  0 -3  2 -2  2  1  1  0 -3 -3 -2],3465.8333333333335,39.333333333333336,crit,-0.5
18412,Indian morality,18412,12,[ 1  1  0  2  3  3 -1 -2  1  2 -1  2],3637.5,32.583333333333336,crit,0.9166666666666666
6880,Indian newsletter,6880,13,[ 3  3  3  3  3 -2  0  3  1  3  3  3  3],3578.923076923077,33.38461538461539,crit,2.230769230769231
4011,Indian particular,4011,9,[-2  1 -3 -3 -3 -3 -3  3 -1],3699.6666666666665,26.11111111111111,crit,-1.5555555555555556
12226,Indian plaque,12226,8,[ 2 -3  0  3  2 -2  2 -3],5546.25,33.0,crit,0.125
18497,Indian platinum,18497,11,[ 1  1 -1  3  2 -3  0 -3 -3  1  0],3650.4545454545455,27.0,crit,-0.18181818181818182
5850,Indian proposition,5850,19,[ 1 -2 -1 -1  1  2  0  0 -3 -3  3  2  0 -3  1  3 -3  3 -2],3940.2631578947367,39.36842105263158,crit,-0.10526315789473684
5857,Indian ram,5857,16,[ 0 -3  2 -1 -3  3  0  1  0 -1  0  2  1  1 -3 -1],5850.875,38.1875,crit,-0.125
5239,Indian regard,5239,11,[-1 -1  0  3 -3 -1 -3  1  2 -2 -3],4163.545454545455,31.363636363636363,crit,-0.7272727272727273
571,Indian rowing,571,14,[ 2 -2 -2 -1 -3  1 -2  0 -3  3  3  3  1 -2],4424.785714285715,29.214285714285715,crit,-0.14285714285714285
18237,Indian ski,18237,12,[-2 -3  2  1 -3 -1  0 -2 -3 -3 -3  2],5484.333333333333,32.416666666666664,crit,-1.25
4151,Indian telescope,4151,13,[-3  1 -3  2  1  3  3  3 -1  1  3  2  2],3755.4615384615386,32.07692307692308,crit,1.0769230769230769
15331,Indian verdict,15331,12,[ 1 -2  3  2 -2 -3  2  1 -3 -3 -1 -3],2857.6666666666665,34.0,crit,-0.6666666666666666
4407,Indian viewing,4407,10,[ 1 -3 -2  3 -3 -2  3 -3 -3 -2],7295.1,29.7,crit,-1.1
5853,Iraqi anniversary,5853,19,[ 2  3  3 -2  3  0 -1 -3  2  1 -1  0 -2  2  2  3  1 -1 -2],5000.578947368421,41.526315789473685,crit,0.5263157894736842
5967,Iraqi astronomer,5967,10,[ 3  3  3  3  3  1  2  3  3 -1],3949.0,29.9,crit,2.3
12287,Iraqi awareness,12287,9,[-2  0  1  1 -3  1  3 -3  1],3743.8888888888887,35.44444444444444,crit,-0.1111111111111111
8532,Iraqi boyfriend,8532,10,[ 2  3 -1  3  2  3  3  3  2  3],3420.6,31.5,crit,2.3
5486,Iraqi bracket,5486,17,[ 0 -3 -1 -3 -3 -3 -2  3 -3 -3  1 -3 -3 -3 -2 -3  0],4885.235294117647,35.76470588235294,crit,-1.8235294117647058
932,Iraqi bull,932,14,[ 1  2  3  2  1 -2  3 -3 -2  1  1  3  3  2],5105.214285714285,34.857142857142854,crit,1.0714285714285714
11591,Iraqi daughter,11591,9,[ 3  3  3  3  3  3  1  3 -3],3871.8888888888887,31.11111111111111,crit,2.111111111111111
12281,Iraqi dismissal,12281,8,[-2  1  3  2  3 -1 -1  2],4815.375,37.25,crit,0.875
2979,Iraqi download,2979,13,[-3 -3 -3 -3 -3 -3 -3 -1 -3 -3 -3 -3  0],3448.0,29.076923076923077,crit,-2.6153846153846154
2097,Iraqi exclusion,2097,42,"[ 3  1 -3 -3 -1 -2  3  0  1  3 -1  1  1  0 -2  1  1 -1  3  3  0  2  1  2
 -1  2  3  1 -3 -3 -3 -1 -2 -3  1  1 -3 -3  3  0  0  3]",3680.0714285714284,37.714285714285715,crit,0.11904761904761904
16790,Iraqi extension,16790,11,[ 1  1 -3 -3 -2 -3 -3 -2  1 -1 -1],7642.545454545455,30.363636363636363,crit,-1.3636363636363635
12884,Iraqi fairy,12884,12,[-3  3  3 -3 -2 -2  0 -1  1  1  2 -3],5476.833333333333,33.0,crit,-0.3333333333333333
19934,Iraqi guideline,19934,9,[ 1  2  2  3  1 -1  1  1 -2],4154.666666666667,30.88888888888889,crit,0.8888888888888888
13543,Iraqi hit,13543,11,[ 2 -2 -3  2  0 -1  2  0  3  3  3],4511.545454545455,38.45454545454545,crit,0.8181818181818182
13009,Iraqi hull,13009,9,[ 1 -2  0 -3 -3  3 -2 -3  1],4829.555555555556,39.44444444444444,crit,-0.8888888888888888
8843,Iraqi identifier,8843,11,[-3 -3  1  1  3  3  3 -2  3  3 -1],3499.818181818182,35.0,crit,0.7272727272727273
9749,Iraqi jury,9749,10,[ 2  3  1  3  3  2  2  3 -3 -2],3517.6,32.9,crit,1.4
17027,Iraqi landowner,17027,9,[ 3  3  3  3  0  3  2 -3  3],9948.666666666666,32.22222222222222,crit,1.8888888888888888
15508,Iraqi memorial,15508,8,[3 1 3 3 1 2 3 3],6182.875,38.0,crit,2.375
9615,Iraqi organ,9615,11,[-3 -3 -3 -3  1  2  0 -1 -3 -3 -1],13141.454545454546,33.54545454545455,crit,-1.5454545454545454
2136,Iraqi pepper,2136,41,"[ 2 -1  0  2  3 -2 -2  0 -1  1 -3  3 -2  1 -3  0 -3 -3  3  3 -3 -3  0  0
  1  3  3  3 -3 -3 -2 -2  2 -3  2 -2 -2  0  3 -2 -3]",3598.731707317073,38.90243902439025,crit,-0.3170731707317073
5912,Iraqi perfection,5912,12,[-3  1 -3 -3  1  0  1 -3 -3  0  2 -1],5279.666666666667,29.5,crit,-0.9166666666666666
12059,Iraqi pest,12059,11,[ 2  3 -3 -3  1 -3 -1 -3 -2  2  2],4183.272727272727,32.54545454545455,crit,-0.45454545454545453
2116,Iraqi potato,2116,42,"[ 2  1  0  3 -1 -3  3 -3 -3  3 -2  1  3  1 -1  1  0 -1 -3 -3  1  3  3  3
 -3  0  2  1  3  3 -3 -3 -1 -2 -3 -2  2  1 -3  0 -1 -3]",3837.214285714286,38.04761904761905,crit,-0.09523809523809523
464,Iraqi pound,464,12,[ 0 -2 -3  3 -2 -2  2  2 -3 -1  2 -1],7708.5,30.333333333333332,crit,-0.4166666666666667
14411,Iraqi race,14411,12,[ 2  3 -1  3 -2 -3  2  2  3  3  3  1],6573.25,28.833333333333332,crit,1.3333333333333333
14783,Iraqi reading,14783,9,[ 0  1 -2  3 -1  1 -3 -3 -1],6555.555555555556,32.666666666666664,crit,-0.5555555555555556
4718,Iraqi refreshment,4718,13,[-2 -3  2  3 -2  2  3  2 -1  3  2 -3 -3],3871.4615384615386,27.692307692307693,crit,0.23076923076923078
15963,Iraqi rider,15963,8,[-3  2  3  3  2  0 -2  2],4170.875,31.875,crit,0.875
17474,Iraqi rugby,17474,8,[ 2  3  3  1  3  1 -2  3],3025.125,34.125,crit,1.75
18831,Iraqi search,18831,11,[-2  3 -2  2 -3  2  3 -1  3  3 -3],3609.5454545454545,32.81818181818182,crit,0.45454545454545453
1841,Iraqi shift,1841,11,[ 2  1  2 -2 -2 -3 -3 -3 -2  3  3],6708.545454545455,37.72727272727273,crit,-0.36363636363636365
17974,Iraqi simplicity,17974,10,[ 2 -3 -2 -3  2 -2 -3 -3  0 -2],8144.6,32.5,crit,-1.4
5963,Iraqi simulation,5963,10,[ 1  3 -1  2 -2  0 -1  2  2 -3],3972.7,27.1,crit,0.3
17558,Iraqi sociology,17558,15,[-3  2  3 -3  2  2  2  3  3  3  2  3  3  3  2],4394.933333333333,36.53333333333333,crit,1.8
13396,Iraqi spelling,13396,11,[ 3  0 -3  1  1  3  2 -2  1 -3  1],7487.0,27.727272727272727,crit,0.36363636363636365
15719,Iraqi spin,15719,12,[ 0 -1 -2  3  2 -2 -3  0  1 -2 -3 -3],7903.583333333333,35.583333333333336,crit,-0.8333333333333334
9648,Iraqi spiral,9648,10,[-2 -3 -3 -3  3 -2 -3 -2 -3  3],12091.2,27.2,crit,-1.5
1093,Iraqi steel,1093,10,[ 3 -3  3  3 -3  0  3  2  3  3],5635.3,35.1,crit,1.4
1803,Iraqi suite,1803,13,[ 2  0  3  0 -2  3 -3 -3  2 -3  0 -2  1],8347.384615384615,29.076923076923077,crit,-0.15384615384615385
6858,Iraqi sum,6858,12,[ 0 -3 -1  0 -2 -1 -2 -3  0 -2 -2 -3],9086.5,29.083333333333332,crit,-1.5833333333333333
13549,Iraqi switch,13549,12,[ 2 -3  3  2 -3 -3  0 -2 -3  0 -3  0],3810.4166666666665,35.916666666666664,crit,-0.8333333333333334
8508,Iraqi sword,8508,13,[ 0 -3 -3  3  3 -3  2  3 -1  3 -2  3  2],4852.076923076923,35.30769230769231,crit,0.5384615384615384
15720,Iraqi terrain,15720,9,[3 3 3 3 1 3 3 2 3],5278.111111111111,41.888888888888886,crit,2.6666666666666665
10203,Iraqi tolerance,10203,12,[-3  0 -3  2  3  3 -1 -3  0 -3  2  3],4318.833333333333,37.166666666666664,crit,0.0
2594,Iraqi warranty,2594,13,[-3 -3 -1 -3 -3 -2 -1  2 -3  2 -3 -3 -2],6528.153846153846,32.15384615384615,crit,-1.7692307692307692
3723,Iraqi wildlife,3723,9,[-2  2  3  2  3  2  0  0  2],5439.0,26.88888888888889,crit,1.3333333333333333
6255,Irish DNA,6255,17,[ 3  3  3  3  3  3  3  3  3  1 -3  3  3  3  2  3  3],3239.0,30.41176470588235,crit,2.4705882352941178
12174,Irish accessibility,12174,12,[-3 -1  1  3  2  0 -3  2  3  3  1 -3],8183.0,35.5,crit,0.4166666666666667
9504,Irish bonus,9504,11,[ 1  3 -2  3  1 -3 -2  1  3 -1  1],5768.909090909091,34.18181818181818,crit,0.45454545454545453
4876,Irish bureaucracy,4876,9,[3 3 0 3 3 2 0 3 2],4929.666666666667,39.333333333333336,crit,2.111111111111111
7416,Irish cab,7416,13,[3 2 1 1 0 3 2 1 3 2 2 1 3],4115.076923076923,29.46153846153846,crit,1.8461538461538463
19793,Irish combat,19793,9,[ 1  3  2 -1  1  3 -2  3  1],2912.1111111111113,30.666666666666668,crit,1.2222222222222223
10363,Irish cult,10363,11,[ 3 -1  3  2  3  1  3  3  2  3  1],4311.090909090909,31.363636363636363,crit,2.090909090909091
17557,Irish disk,17557,15,[-3  0  2 -2 -1  3  1  1  3  1 -2  2  1 -2 -1],5845.333333333333,40.53333333333333,crit,0.2
16468,Irish kilometre,16468,13,[ 0 -3  1 -2 -3 -3 -3 -2 -3  3 -3 -3 -2],3913.0,36.38461538461539,crit,-1.7692307692307692
4132,Irish lender,4132,15,[ 3  1  3  3  2 -1  3 -3 -2  2  3 -2  0  3  1],4884.733333333334,37.6,crit,1.0666666666666667
11696,Irish licensing,11696,11,[ 2 -3  2  3  1 -3  3  1 -2  3  2],9742.818181818182,43.27272727272727,crit,0.8181818181818182
6775,Irish midnight,6775,14,[ 3  0 -3 -1 -3 -1 -2 -3  0 -3  1  2  0  1],3747.4285714285716,31.785714285714285,crit,-0.6428571428571429
14845,Irish nucleus,14845,10,[ 0 -2 -3 -3 -2 -3  2 -3 -3  1],3352.4,33.1,crit,-1.6
5198,Irish pond,5198,19,[ 3  3 -3  2  3 -3  3  2  2  3  3  3  2 -3  2  3 -2  3  3],3207.157894736842,37.21052631578947,crit,1.5263157894736843
1541,Irish praise,1541,10,[-2  0 -3 -3  0  3 -3 -1  3  3],3917.2,34.6,crit,-0.3
734,Irish quotation,734,13,[-1  0  1  2 -2  0 -1  3  3  3  0  3 -2],3558.3076923076924,34.38461538461539,crit,0.6923076923076923
19347,Irish rabbit,19347,9,[3 3 3 1 3 2 3 0 3],4950.666666666667,34.22222222222222,crit,2.3333333333333335
15373,Irish rape,15373,10,[-2 -3  3 -3 -3  3 -3 -2  1 -3],4157.6,36.6,crit,-1.2
5103,Irish remit,5103,17,[ 1  1 -3  2 -3 -1 -1 -3 -1 -2 -3 -2  1 -3 -2  0 -3],6806.764705882353,34.23529411764706,crit,-1.2941176470588236
5711,Irish shade,5711,14,[-3 -3 -3 -1  0  2 -3 -3 -1  2 -2  0 -1  0],4328.5,28.214285714285715,crit,-1.1428571428571428
17450,Islamic Internet,17450,10,[ 3  1 -3  0  3  0  2 -2  2  0],4670.2,34.7,crit,0.6
5546,Islamic absorption,5546,9,[-3  1 -2  0  1 -2  3  3 -1],5309.555555555556,38.0,crit,0.0
16968,Islamic alphabet,16968,11,[ 3  3  3  3  3  3  3  3 -3  0  3],10781.363636363636,38.63636363636363,crit,2.1818181818181817
15870,Islamic autobiography,15870,10,[ 2  2  3  0  2  2 -3  3  1  2],4918.2,33.8,crit,1.4
4621,Islamic bundle,4621,10,[-3 -3  3 -3 -3 -2 -3 -2 -3 -2],3309.3,32.2,crit,-2.1
13561,Islamic contamination,13561,10,[-3  0 -2  3  2 -3  1  1  1  3],3099.7,32.3,crit,0.3
8320,Islamic controller,8320,14,[ 3  0  0 -3  1  1  2  3  2  2 -1 -1 -2 -2],4021.4285714285716,35.642857142857146,crit,0.35714285714285715
2006,Islamic copy,2006,41,"[-2  0 -1 -3  3  1 -2  3  1  0  0  2 -2 -1 -1 -2 -3 -3 -2  3  0 -1  3 -2
  0  2 -3  3  0  1  0 -3 -1 -2 -3  1  2 -3 -2  0 -3]",3863.731707317073,37.829268292682926,crit,-0.4878048780487805
8666,Islamic creator,8666,14,[ 2  3  1  1  0 -3  3 -1  3  0 -3  1  3  2],5860.214285714285,31.857142857142858,crit,0.8571428571428571
9963,Islamic demon,9963,13,[ 0 -2 -2 -2 -3  3  0 -3  2 -1  3 -1 -3],4413.846153846154,31.615384615384617,crit,-0.6923076923076923
6489,Islamic diameter,6489,12,[-3 -3 -3 -2 -3 -3 -3 -3 -3 -3 -3 -3],3322.8333333333335,30.416666666666668,crit,-2.9166666666666665
1836,Islamic disciple,1836,13,[3 2 3 1 3 3 2 1 1 1 2 1 3],3669.846153846154,30.23076923076923,crit,2.0
16769,Islamic disposal,16769,11,[ 1  2 -3  3 -1 -3  1  2  3 -1 -3],4261.545454545455,29.727272727272727,crit,0.09090909090909091
18914,Islamic dispute,18914,11,[ 0  0  3  2  3  1  0  2 -1  2  2],3590.0,30.727272727272727,crit,1.2727272727272727
8276,Islamic dock,8276,18,[-1 -1 -3 -3 -1 -3  1 -3 -1 -2 -1  2 -3  0 -2  1 -2 -3],3515.6111111111113,35.888888888888886,crit,-1.3888888888888888
14265,Islamic downtown,14265,9,[ 1  2 -3 -3 -3 -2 -3 -1  3],4181.333333333333,30.88888888888889,crit,-1.0
3520,Islamic glance,3520,14,[-2 -3 -3 -3 -1 -3 -2  2 -2  1  0 -3 -1 -3],3223.5714285714284,30.285714285714285,crit,-1.6428571428571428
7096,Islamic hormone,7096,16,[-2 -1 -3 -3 -3 -3 -3 -3 -2 -2  0 -3 -3 -3 -2 -2],4086.3125,33.0625,crit,-2.375
8085,Islamic lab,8085,9,[-1  3  3  3 -2 -1 -1  1  2],3580.4444444444443,36.22222222222222,crit,0.7777777777777778
2747,Islamic luggage,2747,8,[-3  3 -2 -2  3 -2 -1 -1],4504.0,37.5,crit,-0.625
11424,Islamic missile,11424,11,[ 2  3 -3  2  3  3  3  3 -1  2  3],3421.6363636363635,30.0,crit,1.8181818181818181
17442,Islamic motor,17442,8,[-3  3  2 -3  1 -1  2  2],3477.5,34.875,crit,0.375
744,Islamic passing,744,13,[-2 -2 -1  2 -3  3 -3 -3 -2  2  0  3 -3],3721.923076923077,34.0,crit,-0.6923076923076923
4784,Islamic plasma,4784,10,[-2 -3 -2 -3 -3 -3 -3 -3 -2 -3],3081.2,28.7,crit,-2.7
7887,Islamic removal,7887,9,[-3  0  2  3  3  2  3 -3  3],3481.777777777778,44.22222222222222,crit,1.1111111111111112
2384,Islamic spreadsheet,2384,9,[-3 -3 -1  1  0 -3  1  1 -3],3404.222222222222,31.22222222222222,crit,-1.1111111111111112
2575,Islamic squash,2575,12,[-1 -2 -3 -3 -1 -3 -3  3 -2 -3 -2  1],3585.9166666666665,33.833333333333336,crit,-1.5833333333333333
11293,Islamic stem,11293,12,[ 2  0  1  0 -3  3  1  0  1 -3  0  0],5020.583333333333,26.916666666666668,crit,0.16666666666666666
11477,Islamic suspicion,11477,12,[ 3  0  3  0  1 -3  1  3  1 -3 -3  0],4720.5,38.0,crit,0.25
341,Islamic synopsis,341,15,[ 2 -1 -3 -3  0  1  3  3  0 -2  2  3  3 -2 -1],4835.333333333333,36.4,crit,0.3333333333333333
4047,Islamic tournament,4047,14,[-3  1 -2  3  2 -1  2  3  3  3  0 -3  0  2],6270.714285714285,32.357142857142854,crit,0.7142857142857143
14102,Islamic widow,14102,14,[ 3  3 -2  2  3  3  2  3  3  3 -3  3  0  2],4791.5,41.214285714285715,crit,1.7857142857142858
1206,Israeli advancement,1206,9,[-1  1 -3  0  2  3  2  0  2],3375.8888888888887,32.44444444444444,crit,0.6666666666666666
14878,Israeli arrival,14878,14,[ 3  3 -2  2 -3  3  2  0 -3  2  3  3 -3  3],3718.3571428571427,31.785714285714285,crit,0.9285714285714286
17500,Israeli atom,17500,9,[-2 -3  3  2 -2  3 -3  0 -3],3213.1111111111113,35.666666666666664,crit,-0.5555555555555556
12371,Israeli batch,12371,10,[-3 -2  1 -3  1  0  1  2  1 -1],3216.1,32.2,crit,-0.3
10020,Israeli boiler,10020,12,[-3  3 -3 -3  3 -3 -3 -3  0 -3 -2 -3],4635.916666666667,40.27272727272727,crit,-1.6666666666666667
9801,Israeli castle,9801,10,[3 3 3 3 3 2 3 3 3 3],3356.7,30.0,crit,2.9
7856,Israeli detective,7856,15,[3 3 1 3 3 3 2 3 3 3 3 3 3 1 2],3764.9333333333334,32.86666666666667,crit,2.6
2390,Israeli discipline,2390,14,[ 1 -2 -2  3  1  3 -2 -2  0  3  3  3  3  1],4714.357142857143,37.214285714285715,crit,0.9285714285714286
15941,Israeli diving,15941,11,[-3  0 -2  1 -3  1 -3  1 -2 -3 -1],5718.454545454545,35.18181818181818,crit,-1.2727272727272727
8372,Israeli employability,8372,13,[ 3 -2 -3  1  0 -3 -3 -2  3  0 -2  1 -2],4683.615384615385,33.76923076923077,crit,-0.6923076923076923
18191,Israeli frequency,18191,14,[-3  2 -3 -2 -3 -3 -3 -3 -3  2 -3 -3 -3 -2],5087.714285714285,31.928571428571427,crit,-2.142857142857143
14770,Israeli globe,14770,10,[-3 -3 -3  1 -2  3 -2 -1 -3 -3],4241.4,27.0,crit,-1.6
4928,Israeli gravel,4928,11,[ 2  0  0  2  2 -3 -3  2  3  2  3],6240.090909090909,34.09090909090909,crit,0.9090909090909091
15273,Israeli hockey,15273,11,[-3  3  0 -3  1 -3  1  3 -1  3 -3],3625.909090909091,38.27272727272727,crit,-0.18181818181818182
7690,Israeli inside,7690,11,[-3 -3 -1  1 -1  3 -3 -3 -1 -3  2],3764.181818181818,32.72727272727273,crit,-1.0909090909090908
3579,Israeli leak,3579,8,[ 3  3  0  1  0 -3  1 -2],3228.75,36.0,crit,0.375
9806,Israeli leap,9806,10,[-3 -3 -1  0 -3  2 -2 -3  2 -2],3387.0,36.1,crit,-1.3
7148,Israeli mall,7148,9,[ 2  3  2  3  1  3  3  2 -3],3749.4444444444443,31.11111111111111,crit,1.7777777777777777
19762,Israeli midwife,19762,13,[2 2 0 0 3 3 3 3 3 2 3 3 2],3292.3076923076924,28.23076923076923,crit,2.230769230769231
14404,Israeli object,14404,10,[ 2  0  3  1  2 -1  0  3  3  2],3911.9,34.2,crit,1.5
13279,Israeli offering,13279,18,[ 1  3  1  2  1  3 -1  1  1 -1  3 -3  3  3  3  1 -3  2],4470.944444444444,31.61111111111111,crit,1.1111111111111112
6712,Israeli packaging,6712,8,[ 3 -2 -3  2 -2 -3  3  2],3993.25,29.875,crit,0.0
15833,Israeli parking,15833,13,[ 3 -2 -3 -2 -3 -2 -1 -3  3  3 -3  0  3],3979.769230769231,36.61538461538461,crit,-0.5384615384615384
19968,Israeli passing,19968,9,[ 0  0  1 -2 -3  2  2 -3 -3],5977.666666666667,35.333333333333336,crit,-0.6666666666666666
104,Israeli planet,104,9,[-3 -3  2 -3 -3 -2 -1 -3 -3],4139.555555555556,35.5,crit,-2.111111111111111
17456,Israeli receptor,17456,8,[-1  2  1 -3 -1 -3 -3  2],5171.875,32.875,crit,-0.75
16992,Israeli rep,16992,11,[ 2 -3 -3 -3 -2  0  3  1 -3  1  0],3654.7272727272725,31.636363636363637,crit,-0.6363636363636364
18379,Israeli retrieval,18379,10,[-3  0 -3  2  1 -3  0  3  3  1],2798.9,30.2,crit,0.1
11741,Israeli scratch,11741,11,[-3  0 -2  1 -2 -3 -2 -3 -3 -3 -3],3803.2727272727275,32.63636363636363,crit,-2.090909090909091
14433,Israeli scrutiny,14433,8,[-2  3 -2 -1  2  2 -2  3],2839.125,29.5,crit,0.375
18882,Israeli sensor,18882,9,[ 1 -3  1 -3  1  3  2  1 -2],4478.222222222223,30.0,crit,0.1111111111111111
17446,Israeli sequel,17446,10,[ 3 -2 -3 -3 -2  3  0  2  2  3],4371.2,31.4,crit,0.3
19967,Israeli skill,19967,8,[ 1  3 -3 -2  3  2 -2  1],3590.625,32.75,crit,0.375
16300,Israeli spiral,16300,11,[ 2 -3  0 -2 -3  3  1 -2 -3  1 -3],7264.272727272727,29.818181818181817,crit,-0.8181818181818182
19146,Israeli stick,19146,8,[ 0  0 -3  3 -1  0 -3 -2],4154.125,32.75,crit,-0.75
1647,Israeli suit,1647,8,[ 1 -3  3  0  3  3  3 -2],3107.5,37.125,crit,1.0
9650,Israeli tape,9650,16,[-1  3 -1 -3  0  3 -3 -1 -2  0  3 -3  0 -3  2  3],3724.5625,35.5625,crit,-0.1875
17466,Israeli testing,17466,8,[ 0 -2  2 -3  3 -1  3  3],6247.0,36.25,crit,0.625
2922,Israeli texture,2922,15,[-3 -3  0 -2  3 -2  3 -3 -3 -2  0 -3  1 -3  3],3932.4666666666667,33.46666666666667,crit,-0.9333333333333333
8464,Israeli valuation,8464,8,[-2 -2  0 -3  3 -1  1 -2],3189.125,23.875,crit,-0.75
11527,Italian Christianity,11527,13,[ 3 -3  2  3 -1  0 -1  1 -2 -2  3  1  2],4340.153846153846,33.30769230769231,crit,0.46153846153846156
17432,Italian advantage,17432,11,[ 1  3 -2  3  1 -3  3  0  3  3  2],3431.6363636363635,34.18181818181818,crit,1.2727272727272727
13039,Italian arthritis,13039,11,[-3 -3 -2 -3 -3 -3  1 -3 -3 -3 -3],4274.545454545455,30.90909090909091,crit,-2.5454545454545454
16747,Italian assertion,16747,10,[ 2 -2 -1 -3 -1  0  2  1  0 -1],7031.1,38.4,crit,-0.3
16431,Italian axe,16431,12,[ 3 -3  2  3  2  3  3  1 -3 -3  2  0],4170.75,30.333333333333332,crit,0.8333333333333334
2485,Italian batsman,2485,9,[-1  2  1  1  3 -3  2  1  3],5905.777777777777,29.555555555555557,crit,1.0
4783,Italian bone,4783,11,[ 3  1 -2  3 -1  3 -3  2 -3 -2  1],3070.2727272727275,28.454545454545453,crit,0.18181818181818182
5417,Italian capsule,5417,11,[ 1 -3  1  0  0  0  0  2 -2 -3  1],3723.2727272727275,31.181818181818183,crit,-0.2727272727272727
6429,Italian clue,6429,10,[ 3  3  0 -1 -3  2  1  1 -1  3],4405.4,31.1,crit,0.8
13261,Italian completion,13261,9,[-2 -2 -3  2 -3  0 -2 -3 -3],5769.888888888889,31.22222222222222,crit,-1.7777777777777777
4493,Italian diving,4493,13,[ 3  2 -3  1  1  0  0  3 -3  2 -3 -2  1],3384.230769230769,28.0,crit,0.15384615384615385
1665,Italian heat,1665,8,[ 2  3 -1 -3 -3  3  0  1],4172.625,33.75,crit,0.25
11065,Italian implication,11065,10,[-1  1 -3  0  2  3 -1  3 -1 -1],4862.4,34.4,crit,0.2
1589,Italian induction,1589,8,[ 0  0 -3 -3  3 -2  3 -3],3704.125,34.125,crit,-0.625
721,Italian insulation,721,11,[-2 -2 -3 -1 -3  1 -2  1 -2  2 -3],2749.6363636363635,33.63636363636363,crit,-1.2727272727272727
1309,Italian insulin,1309,11,[-3 -3  0 -3 -3 -2 -3 -2 -3 -2 -1],3113.909090909091,28.818181818181817,crit,-2.272727272727273
837,Italian isolation,837,10,[-2 -1 -2  2 -3 -3  0  0 -2 -2],6091.9,32.9,crit,-1.3
19664,Italian million,19664,9,[ 2 -1 -2  0 -1 -3  1 -3 -3],4629.0,40.333333333333336,crit,-1.1111111111111112
16541,Italian outcome,16541,10,[-2 -1  2  1  2  3  1 -2  1 -3],4050.0,35.4,crit,0.2
2898,Italian phase,2898,10,[-1  2 -3  3  3  3  3  3  1  3],4316.4,38.5,crit,1.7
15843,Italian reasoning,15843,11,[ 1  1  2  3  3 -1  1  1  3 -2  3],4613.090909090909,35.18181818181818,crit,1.3636363636363635
14873,Italian storage,14873,15,[-1  3  1  3  2 -2  2 -3  2 -2  0  1  3 -1  0],3798.866666666667,38.13333333333333,crit,0.5333333333333333
13280,Italian substrate,13280,14,[ 0  1 -2 -3  3  3  1 -2 -3  2 -1  2 -3  1],4235.571428571428,35.57142857142857,crit,-0.07142857142857142
17889,Japanese NHS,17889,9,[-2 -2 -1  3 -3 -3  2  2  0],4224.555555555556,38.888888888888886,crit,-0.4444444444444444
4986,Japanese autonomy,4986,12,[ 0 -2  0  0  3  3  3  1  3 -2  0  3],5527.083333333333,32.083333333333336,crit,1.0
1089,Japanese basement,1089,13,[ 1  3  2 -3  3  2  3  3  3  0  1  2 -3],4723.7692307692305,40.76923076923077,crit,1.3076923076923077
18108,Japanese benchmark,18108,10,[ 3  3  3 -1  1 -3  2  1 -3  3],3935.2,29.7,crit,0.9
3954,Japanese broadband,3954,9,[2 2 3 1 2 3 1 2 1],3987.1111111111113,27.77777777777778,crit,1.8888888888888888
18003,Japanese cannabis,18003,9,[ 3  3  3 -3  3  2  3  3  1],3767.4444444444443,41.0,crit,2.0
5439,Japanese commencement,5439,14,[ 1 -2 -3  3  2  3  0  3 -3  2  0  3  3  1],4584.714285714285,38.857142857142854,crit,0.9285714285714286
9597,Japanese discretion,9597,14,[ 0  2  0 -3  2 -2  2 -3  3  3  1  0 -1 -2],3905.1428571428573,33.57142857142857,crit,0.14285714285714285
4580,Japanese dismissal,4580,11,[ 3 -2 -3 -3  0  3 -3  3 -3 -3 -3],6534.363636363636,33.18181818181818,crit,-1.0
1822,Japanese injection,1822,16,[ 2  0 -3  1 -2 -3  1  2  2  3 -3  3 -1  2  2 -1],5374.375,35.6875,crit,0.3125
14249,Japanese kernel,14249,10,[ 3  0 -1 -3 -2 -3 -3 -2  1 -3],17337.0,33.5,crit,-1.3
13011,Japanese meantime,13011,11,[-3  0 -2  0 -3 -3 -3 -3  0  1 -3],3850.7272727272725,33.90909090909091,crit,-1.7272727272727273
18411,Japanese metadata,18411,12,[ 2  3  3  1  2 -2 -1  0 -1  2  1  2],4102.25,35.916666666666664,crit,1.0
6456,Japanese mud,6456,12,[ 3 -1  3  3 -3  3 -2  3  3 -3 -3  3],4172.5,36.333333333333336,crit,0.75
17624,Japanese profit,17624,13,[ 3  3  2 -1  3  3  3  0  0 -3 -1  1  3],4263.538461538462,31.0,crit,1.2307692307692308
15088,Japanese semester,15088,14,[ 2 -3  2 -1  3  3 -3  3 -3  2 -3 -2 -2 -3],4603.714285714285,34.785714285714285,crit,-0.35714285714285715
18898,Japanese sin,18898,12,[-2  1  3 -3 -3  3 -2  1  1 -2  2 -2],7499.833333333333,32.75,crit,-0.25
16251,Japanese uprising,16251,10,[3 3 3 3 3 3 2 3 3 3],4141.0,34.6,crit,2.9
14550,Japanese woodland,14550,19,[ 2  3  3  2  3  3  1  3 -3  3  3  3  2  3  3  2  3  3  0],4038.2631578947367,35.89473684210526,crit,2.210526315789474
11962,Jewish batsman,11962,13,[-2  1  3 -3 -2  2 -2 -3 -1 -3  1  0 -1],3491.846153846154,30.153846153846153,crit,-0.7692307692307693
4398,Jewish bid,4398,11,[ 3  2 -2  2  3 -3  0 -2 -2 -3  3],5595.909090909091,42.36363636363637,crit,0.09090909090909091
7040,Jewish bombing,7040,8,[ 3  2  0 -1  3  3 -3 -3],5122.0,32.75,crit,0.5
15470,Jewish byte,15470,12,[-2 -3 -3 -3 -3 -3 -2 -3 -2  0 -2 -3],4684.75,35.75,crit,-2.4166666666666665
15986,Jewish calculator,15986,11,[-2 -1  3  3 -3  2 -2  0  0 -3 -3],3844.090909090909,38.27272727272727,crit,-0.5454545454545454
17794,Jewish casino,17794,9,[ 0 -1  2  2  2  0  2 -2  2],7461.666666666667,39.44444444444444,crit,0.7777777777777778
4028,Jewish certainty,4028,12,[-3  1 -1 -1 -3 -3  2  3 -3 -2  1  0],3497.5,35.333333333333336,crit,-0.75
1567,Jewish checking,1567,11,[-3 -3 -2 -1 -1 -3 -3 -1  1 -3 -3],5567.545454545455,29.545454545454547,crit,-2.0
11420,Jewish cheer,11420,14,[-3 -2  3 -3 -3  2 -2  2 -3 -3  3 -2 -2  0],3799.9285714285716,34.42857142857143,crit,-0.9285714285714286
3892,Jewish curiosity,3892,12,[ 3  0 -2  3  2  0  0  3  2  3 -2 -1],4197.583333333333,34.666666666666664,crit,0.9166666666666666
18693,Jewish debit,18693,10,[ 3 -1  3 -3  1 -2 -2 -3 -3  0],7716.0,35.4,crit,-0.7
6906,Jewish diamond,6906,9,[-3 -1  1  0  2  2  2  2  2],3419.0,28.0,crit,0.7777777777777778
16535,Jewish disposal,16535,9,[-1 -2  0  1 -2  1 -3 -3  1],7080.777777777777,30.0,crit,-0.8888888888888888
11771,Jewish evaluation,11771,13,[ 0  1  3  3 -2 -2  0  1 -3  2  3  0 -1],5880.461538461538,36.69230769230769,crit,0.38461538461538464
18392,Jewish fault,18392,16,[ 0 -3 -2 -1  0  2 -2  3 -3 -2 -1 -3 -3 -3 -1  1],5634.9375,38.0625,crit,-1.125
3783,Jewish firing,3783,12,[-2 -3  0 -3 -3  0 -3 -3 -3 -3 -3 -2],4751.416666666667,33.916666666666664,crit,-2.3333333333333335
16800,Jewish globe,16800,9,[-3 -3  0  0 -1 -3 -2 -3 -2],3819.1111111111113,31.88888888888889,crit,-1.8888888888888888
11484,Jewish grade,11484,11,[ 3 -3 -2 -3 -1  1 -3 -3  1  3  0],3951.2727272727275,33.90909090909091,crit,-0.6363636363636364
736,Jewish hardware,736,11,[-2 -2 -3  2 -2 -3 -1  0 -3  2  1],4086.909090909091,31.0,crit,-1.0
6851,Jewish interval,6851,10,[-3  0 -3  3  3 -2 -3 -3 -3  1],2953.7,29.8,crit,-1.0
6401,Jewish laboratory,6401,10,[ 3  3  3  3  0  2 -3  1  3  1],4423.5,31.8,crit,1.6
10288,Jewish mansion,10288,14,[ 3  1 -2  3  1  1 -1 -3  3  0  2 -3  3  2],8009.285714285715,40.142857142857146,crit,0.7142857142857143
7023,Jewish mercy,7023,9,[ 0  3  3  0  0 -2  1  2 -3],4447.666666666667,40.22222222222222,crit,0.4444444444444444
8976,Jewish pass,8976,10,[-1 -3 -3 -3  0  3  2 -1  2  1],4592.9,41.8,crit,-0.3
5972,Jewish percussion,5972,16,[ 0  0  1 -3  0  3 -3  2 -2 -2  2 -3  1  1 -3 -2],5450.9375,30.875,crit,-0.5
14667,Jewish photograph,14667,8,[ 1  3  3  2  2  3  0 -2],4463.125,40.25,crit,1.5
16428,Jewish rear,16428,10,[-1 -2 -3  1 -3  0 -3 -1 -3 -1],4643.8,27.3,crit,-1.6
2344,Jewish scanner,2344,8,[-3 -3 -2 -3 -2 -3 -3  3],3419.0,31.125,crit,-2.0
1772,Jewish scenario,1772,15,[ 3  0  0  3 -3 -3  0  2  0  3  2 -2  0  1  0],3584.866666666667,29.066666666666666,crit,0.4
16221,Jewish screening,16221,12,[-3  3 -2 -2 -1 -3 -3  1 -3 -2  1  2],3544.25,39.666666666666664,crit,-1.0
5107,Jewish shade,5107,8,[-3 -1 -3 -2  0 -2 -1  2],5696.25,35.25,crit,-1.25
12300,Jewish snack,12300,13,[ 0  2  3  3  2 -3  1  2 -2  3 -2  3  0],5610.7692307692305,28.23076923076923,crit,0.9230769230769231
330,Jewish studio,330,12,[ 3  3 -1  2  3  3  1 -2  1  2 -2  0],3334.3333333333335,32.166666666666664,crit,1.0833333333333333
2359,Jewish test,2359,10,[-2 -1  2  2 -3  2  1  1 -3  3],11620.8,31.7,crit,0.2
12303,Jewish tip,12303,8,[-1 -3  2  0  3 -2  3  2],5802.75,29.875,crit,0.5
7428,Jewish trout,7428,11,[-3 -3 -3 -3 -3 -1  1 -1 -3 -3 -3],4604.727272727273,31.363636363636363,crit,-2.272727272727273
2929,Jewish validity,2929,18,[ 0  3  3 -2  3  0  0 -1  0  0 -3 -3  2 -3  1 -3  0  2],3450.3888888888887,32.55555555555556,crit,-0.05555555555555555
5365,Jewish velocity,5365,12,[-3 -2 -3 -3 -3 -3  0 -3 -3 -3  3 -2],5295.333333333333,34.25,crit,-2.0833333333333335
6613,Jewish volcano,6613,13,[-3 -3 -3 -3 -3 -3  3  3 -3 -3  0 -3 -3],2568.3076923076924,34.84615384615385,crit,-1.8461538461538463
18775,Korean amendment,18775,8,[-2  3 -2  2  0  2  2  3],3597.375,36.0,crit,1.0
11667,Korean barn,11667,12,[ 1 -1  3  3 -1  1 -2  3  3  1 -2  3],5191.833333333333,32.833333333333336,crit,1.0
13136,Korean beach,13136,14,[3 3 3 3 2 3 3 0 3 3 3 3 3 2],2900.3571428571427,41.42857142857143,crit,2.642857142857143
2442,Korean biscuit,2442,9,[0 3 0 1 3 0 3 2 0],33619.88888888889,30.88888888888889,crit,1.3333333333333333
1496,Korean bundle,1496,10,[-2 -3  3 -3  2  2 -1  1 -2 -3],4354.0,31.2,crit,-0.6
2488,Korean burial,2488,14,[ 1 -2  1  3  1  3 -2  0  3  3  0  3  3  2],2871.1428571428573,41.357142857142854,crit,1.3571428571428572
13112,Korean coffee,13112,10,[ 2  2 -2  1  3  3  3  3  3  3],2754.6,36.5,crit,2.1
7203,Korean continuity,7203,9,[-3 -3 -3  0  1  0 -3  1  1],4794.333333333333,30.555555555555557,crit,-1.0
14482,Korean corruption,14482,12,[ 3  3  2  3  3  3  3  3  2  1  2 -1],3912.3333333333335,34.0,crit,2.25
14184,Korean deed,14184,8,[-2 -2  1  1  3 -1 -3  1],4875.75,40.125,crit,-0.25
7599,Korean dome,7599,10,[ 2  0  1 -3  1  3 -3  3 -1  1],4758.2,32.3,crit,0.4
8005,Korean ecosystem,8005,10,[ 2  3  3  3  1  2 -1  1  2  3],3341.7,26.1,crit,1.9
3665,Korean enclosure,3665,8,[-1  3  3 -3  3 -1  1  2],2887.25,39.0,crit,0.875
12172,Korean enthusiasm,12172,9,[-3  1  2  1  0  2  3  3  3],3337.4444444444443,33.77777777777778,crit,1.3333333333333333
2333,Korean flame,2333,11,[-2  3  3  1  2  2 -3  1  1  1  0],3896.0,32.45454545454545,crit,0.8181818181818182
7445,Korean fountain,7445,8,[2 3 0 2 2 3 1 1],3778.0,30.0,crit,1.75
2271,Korean friendship,2271,11,[ 0  3  2  3  1 -3  3 -2  3 -3  3],3449.181818181818,29.0,crit,0.9090909090909091
14077,Korean gospel,14077,10,[ 2  3  2 -2  2  3  0  2  2  3],3285.6,39.8,crit,1.7
12311,Korean grant,12311,14,[ 2  1 -1  2  3 -3  0  0  3  2  3  1  3  1],3368.5714285714284,36.42857142857143,crit,1.2142857142857142
12030,Korean ice,12030,10,[ 3 -2  1  0  3  1  3  1  2  3],3906.6,36.7,crit,1.5
1217,Korean imaging,1217,9,[-1 -2  2  1  3  2  1 -3  2],3868.4444444444443,38.666666666666664,crit,0.5555555555555556
18955,Korean jungle,18955,9,[-2  1  1  3  3  3  3  2  3],4613.555555555556,36.22222222222222,crit,1.8888888888888888
16532,Korean licence,16532,8,[ 2  3  2  2  0  3 -2  3],3170.25,34.75,crit,1.625
8749,Korean paint,8749,11,[ 3 -3  3  3  3  3  3 -3  3  1 -2],2680.3636363636365,36.0,crit,1.2727272727272727
8900,Korean polymer,8900,10,[-1  0  3 -1 -3 -1 -3 -2  1 -3],3633.5,29.7,crit,-1.0
3554,Korean reconstruction,3554,10,[ 3  3  3  2 -3  3 -3  2  1  3],3160.3,27.5,crit,1.4
16808,Korean rod,16808,9,[-2  2  1 -3 -1 -3  1 -3  2],3608.777777777778,29.0,crit,-0.6666666666666666
3584,Korean slice,3584,11,[ 1 -3  2  2  0  1 -3  1 -1  0 -3],4284.818181818182,36.09090909090909,crit,-0.2727272727272727
533,Korean spin,533,10,[ 0  0 -2  3 -3 -3 -3 -2 -3  2],3008.8,33.1,crit,-1.1
11047,Korean surfing,11047,11,[ 0  3 -2 -1 -1 -2  2  0  1  3 -2],3561.090909090909,26.545454545454547,crit,0.09090909090909091
3512,Korean tooth,3512,12,[-2 -1  2 -3  2 -3 -3 -3 -3  1 -3 -1],2747.1666666666665,32.583333333333336,crit,-1.4166666666666667
9712,Korean trading,9712,11,[ 1  3  2  3  2  2  1 -1  3  3  2],3366.181818181818,33.09090909090909,crit,1.9090909090909092
14241,Latin affiliate,14241,14,[ 3  3  1  0  3  3  0  1  1  1  1 -3  2  2],4608.714285714285,32.142857142857146,crit,1.2857142857142858
12581,Latin attachment,12581,12,[ 3 -2 -1  3  0  3 -1 -1  0 -3  2 -3],5370.166666666667,34.583333333333336,crit,0.0
16432,Latin baby,16432,12,[ 3  1  1  3  2  3  1  3  3  3 -1 -2],3538.5833333333335,30.75,crit,1.6666666666666667
7391,Latin badge,7391,11,[ 1  2  1  0  2  3 -1 -1  1  0 -3],3609.181818181818,34.36363636363637,crit,0.45454545454545453
14360,Latin boost,14360,8,[-1 -3 -3 -3 -3 -1 -3 -2],3436.625,36.25,crit,-2.375
6770,Latin chemistry,6770,9,[ 3  1 -3  1 -1 -1  0 -1  0],5738.222222222223,28.88888888888889,crit,-0.1111111111111111
18790,Latin concentration,18790,9,[ 0 -2  3 -3  2 -3  1 -3  3],10090.777777777777,48.888888888888886,crit,-0.2222222222222222
11438,Latin conservatory,11438,11,[-2  3  3  3 -2 -3  0  2  2  3  2],5754.0,28.545454545454547,crit,1.0
14192,Latin convenience,14192,14,[-1  1  0  1  2 -2 -2 -2 -3  1  3 -3 -2 -3],5226.428571428572,33.857142857142854,crit,-0.7142857142857143
11467,Latin examiner,11467,11,[ 3  2 -3  3  1  2 -3  3  0  3  0],6303.727272727273,28.0,crit,1.0
2973,Latin fatigue,2973,14,[-1 -1 -2 -3  0 -3  1 -3 -3 -1 -3  1 -2 -2],4609.5,33.857142857142854,crit,-1.5714285714285714
16904,Latin firing,16904,10,[-3 -2 -2 -3 -1 -3 -2 -3  0 -3],4080.7,35.4,crit,-2.2
13689,Latin freezing,13689,10,[-3 -3 -3 -3 -2 -3 -3 -3 -3 -3],3995.3,30.7,crit,-2.9
7982,Latin funeral,7982,13,[-3  2  3  0  2  3  1  2  3 -2  3  2  2],3209.3846153846152,36.0,crit,1.3846153846153846
1768,Latin grape,1768,10,[-2 -2 -1  3 -3 -1 -3 -3 -2 -1],8550.6,28.8,crit,-1.5
14938,Latin harvest,14938,11,[-2 -2  1  3  2 -3 -2 -1  0  0  3],4682.818181818182,32.36363636363637,crit,-0.09090909090909091
2328,Latin hearing,2328,11,[-2 -1  1 -2 -3  0  1  0 -3  3  1],5300.181818181818,32.09090909090909,crit,-0.45454545454545453
12577,Latin ladder,12577,14,[-3 -2 -3 -3 -1  3  0 -3 -3  1 -3  0 -2  0],5993.785714285715,39.57142857142857,crit,-1.3571428571428572
7953,Latin likelihood,7953,12,[-3 -1 -3  0 -3 -3 -3 -3 -3 -2  2 -3],8749.0,36.25,crit,-2.0833333333333335
2440,Latin mess,2440,9,[ 0  3  2 -2  1  0 -3  1  1],5308.888888888889,32.0,crit,0.3333333333333333
10260,Latin microphone,10260,17,[-3 -3  3 -3  1  0 -3 -1 -3 -3  3  0 -2  3 -3  0  1],3625.9411764705883,34.294117647058826,crit,-0.7647058823529411
4339,Latin plug,4339,11,[ 0 -2 -3  1 -3 -3 -3 -3 -2  1 -2],3795.818181818182,36.09090909090909,crit,-1.7272727272727273
13479,Latin principal,13479,8,[ 1  2  1  1  3  1 -2  1],4241.375,28.75,crit,1.0
7576,Latin rate,7576,11,[ 1 -3 -3 -3 -2 -2 -3 -1 -3 -2  0],3824.0,31.727272727272727,crit,-1.9090909090909092
9290,Latin riot,9290,10,[ 1  0  3  1 -3 -1 -2  1 -3  2],4154.7,38.2,crit,-0.1
11283,Latin scandal,11283,18,[ 2  3 -3  0  2 -3  3  1  1  2 -3 -2  3 -3  1 -3  3 -3],3772.3888888888887,33.5,crit,0.05555555555555555
16933,Latin significance,16933,8,[-2  2  0 -3  2 -3  3  3],4174.875,32.0,crit,0.25
13945,Latin spray,13945,9,[-3 -3  2 -3 -1  1 -1 -3 -3],3569.222222222222,33.666666666666664,crit,-1.5555555555555556
11004,Latin stripe,11004,14,[ 0 -3 -1  2 -2  0 -2 -3  3 -3 -2 -2 -3 -1],3084.5,40.57142857142857,crit,-1.2142857142857142
3555,Latin succession,3555,17,[ 2  3  1  3  1  3  3 -1 -2  3  2  1  1  0 -3  3  0],4902.529411764706,34.64705882352941,crit,1.1764705882352942
3849,Latin trial,3849,11,[-2  3 -3  2  3 -1 -1 -2  1 -1 -3],5720.545454545455,28.454545454545453,crit,-0.36363636363636365
16173,Latin wreck,16173,12,[-3  0 -3 -3 -3  1  0 -3  1 -3 -2  1],4146.833333333333,36.416666666666664,crit,-1.4166666666666667
18031,Latin youngster,18031,14,[ 3  2 -1  3  0  1  3  3  3  2  3  3  3  2],3034.9285714285716,34.5,crit,2.142857142857143
13147,Muslim Sunday,13147,9,[ 1 -3 -1  3 -3  0  2 -2  1],3397.4444444444443,24.0,crit,-0.2222222222222222
1430,Muslim allegation,1430,9,[-2 -3  0  3  0  1  0  2  1],3953.1111111111113,27.555555555555557,crit,0.2222222222222222
6730,Muslim application,6730,13,[ 3 -2  2  1  3  1  1  0 -1 -3  1  1  3],4914.076923076923,31.384615384615383,crit,0.7692307692307693
6803,Muslim artillery,6803,17,[ 2  3 -3 -1  2 -2  3  2  3 -2  3  2 -2  3  1  2  0],4165.0,34.35294117647059,crit,0.9411764705882353
13519,Muslim ballet,13519,9,[ 3  0  1  2 -1 -3  2 -3  3],3615.3333333333335,30.666666666666668,crit,0.4444444444444444
19398,Muslim barrier,19398,16,[-2  1  3  0  1 -1  2 -3 -3  0  1 -1  2  3 -1 -2],3734.75,43.1875,crit,0.0
11722,Muslim bishop,11722,9,[-3 -1  1 -2 -3 -3 -3  1  2],4845.777777777777,40.55555555555556,crit,-1.2222222222222223
11441,Muslim cargo,11441,11,[ 2  0  2 -2 -1 -1  1  1  3 -3 -2],3802.090909090909,29.272727272727273,crit,0.0
2274,Muslim carrier,2274,9,[ 3  3 -2 -1 -3  0  0 -3  3],3885.0,38.333333333333336,crit,0.0
19608,Muslim choir,19608,11,[ 3  0  3  1 -2  3  2  2  3  0  3],4756.727272727273,36.90909090909091,crit,1.6363636363636365
9587,Muslim clone,9587,13,[-3 -3  3  1 -2 -1 -3 -2  1  0 -2 -3  2],4817.7692307692305,33.23076923076923,crit,-0.9230769230769231
15851,Muslim coast,15851,11,[ 1  1  2  2  1  3 -2  1 -3 -2  1],4497.454545454545,37.27272727272727,crit,0.45454545454545453
12832,Muslim competence,12832,18,[ 1 -3  3  2  3  2  3 -2  3  1  2  2  2 -2 -3  2 -2 -3],5247.222222222223,34.666666666666664,crit,0.6111111111111112
6785,Muslim coursework,6785,12,[-1  0 -3 -1  3  3  2  3  1 -3  2 -3],3718.1666666666665,33.666666666666664,crit,0.25
18861,Muslim courtyard,18861,11,[-3 -2 -1 -3 -2  2 -1 -2  3 -3 -2],7739.0,32.81818181818182,crit,-1.2727272727272727
11352,Muslim dark,11352,10,[-3  1 -2 -3 -3 -3 -3 -3 -3 -3],4865.7,44.1,crit,-2.5
6769,Muslim dial,6769,12,[-2 -3 -1 -3 -3  2 -3 -3 -2 -3 -3  1],5111.75,31.083333333333332,crit,-1.9166666666666667
9277,Muslim dividend,9277,12,[ 0 -3 -3  1 -1 -3  1  0  0  1 -3 -3],3604.1666666666665,28.0,crit,-1.0833333333333333
9929,Muslim dollar,9929,12,[-1 -3 -3 -1 -2 -2 -2 -3 -3 -3 -3  0],4305.5,32.833333333333336,crit,-2.1666666666666665
18760,Muslim earning,18760,8,[-3 -2 -2  1  3 -3 -1  3],3231.625,35.125,crit,-0.5
18182,Muslim erm,18182,12,[-1 -2 -3 -3  1 -1 -3 -3 -3 -1  0 -3],7132.583333333333,36.166666666666664,crit,-1.8333333333333333
2321,Muslim error,2321,11,[-2  3  0 -3 -2  3 -2 -3 -3  3  0],2734.4545454545455,33.27272727272727,crit,-0.5454545454545454
17729,Muslim essay,17729,12,[ 2  1 -3 -1  2  3  1  2  2  3  3 -1],6083.75,35.916666666666664,crit,1.1666666666666667
19601,Muslim euro,19601,10,[-3  1 -3 -2  0 -3  0  0 -3 -3],3083.5,27.4,crit,-1.6
391,Muslim fighting,391,11,[ 3  0  3 -3  3  2  0  3  3 -3  0],4007.2727272727275,26.636363636363637,crit,1.0
18887,Muslim finish,18887,10,[ 1 -3 -2 -3 -3 -3 -3  0 -3 -1],6887.0,32.1,crit,-2.0
3956,Muslim font,3956,8,[ 1  1  3  1 -3  0  2  0],4052.0,31.25,crit,0.625
11092,Muslim fruit,11092,8,[-1 -3  3 -2 -2 -3 -3 -3],3459.125,43.25,crit,-1.75
7356,Muslim gaming,7356,9,[ 3  1 -2  1 -3 -3  1 -2  3],5645.555555555556,26.88888888888889,crit,-0.1111111111111111
15446,Muslim gene,15446,17,[-3  3 -3  3 -2 -3 -2 -3  0 -3  2  2  3 -3  3 -3 -3],4672.882352941177,40.705882352941174,crit,-0.7058823529411765
9557,Muslim glance,9557,9,[-3 -2 -2  2 -2 -2 -3 -3  1],3856.777777777778,36.22222222222222,crit,-1.5555555555555556
13329,Muslim location,13329,12,[ 1  3  2 -3  3  3  3 -2 -3  2  3  3],3687.0,33.083333333333336,crit,1.25
7711,Muslim luxury,7711,11,[-1  1 -3 -1 -1  3 -3 -3  3 -1  2],3973.5454545454545,33.18181818181818,crit,-0.36363636363636365
12608,Muslim manipulation,12608,9,[-3 -1  1  0  0 -2  0  1  1],5765.333333333333,36.44444444444444,crit,-0.3333333333333333
13590,Muslim nomination,13590,9,[-1  3  1  1  3 -1  0  0  3],4873.444444444444,27.333333333333332,crit,1.0
11084,Muslim pine,11084,8,[-3 -3 -2 -3 -3 -3 -3 -3],3671.5,41.125,crit,-2.875
15280,Muslim prosperity,15280,13,[-3  3 -1  3  2  0  3  2  1  2  2  2  3],10023.615384615385,31.384615384615383,crit,1.4615384615384615
19003,Muslim proximity,19003,13,[ 3 -3  0  0 -2  3  2  2  1 -2  2 -3  1],4930.846153846154,41.53846153846154,crit,0.3076923076923077
12674,Muslim questionnaire,12674,11,[-1  3  0  1 -1 -3  3  1  1  1  3],4389.818181818182,37.18181818181818,crit,0.7272727272727273
9314,Muslim refurbishment,9314,9,[ 0 -2 -1  0 -1  0 -3  2 -3],4782.888888888889,40.666666666666664,crit,-0.8888888888888888
3454,Muslim satellite,3454,10,[-3 -3 -2 -3  3 -3 -3  3  3  2],3631.9,33.6,crit,-0.6
14954,Muslim scrutiny,14954,11,[-2  3  1  3 -2 -1 -1  2  3 -3  2],4112.363636363636,35.90909090909091,crit,0.45454545454545453
14910,Muslim showcase,14910,17,[ 1  2 -3 -1 -2 -3  1 -2  2  3  3 -3  3  0 -1  3 -2],3018.705882352941,29.529411764705884,crit,0.058823529411764705
17946,Muslim surveyor,17946,9,[ 2  0 -1 -1  0  1  3 -3  3],4563.222222222223,32.22222222222222,crit,0.4444444444444444
1344,Muslim threshold,1344,10,[-3  2  3  3 -1 -1 -3 -1  2 -3],6457.8,29.7,crit,-0.2
15042,Muslim thriller,15042,12,[ 0  3 -3  0 -1 -1  2 -1  3  2  3 -1],5144.333333333333,41.0,crit,0.5
2461,Muslim timetable,2461,10,[-1  2 -1 -3  0 -3  2 -2  1 -1],4338.9,33.7,crit,-0.6
2171,Muslim toy,2171,11,[ 2  2  1  3 -3  0  1  1  2  0  3],10566.818181818182,31.0,crit,1.0909090909090908
14686,Muslim wit,14686,10,[ 3 -2 -2  2  3  0 -1  2  3  3],4271.8,32.4,crit,1.1
12491,Muslim wool,12491,10,[-1  1  3 -3 -3  0  3 -1  1  1],3974.2,31.1,crit,0.1
16871,North advent,16871,17,[-2 -3 -1 -2  1 -3 -2  3  2 -3  3 -3  0 -1 -3 -3 -3],4922.882352941177,40.11764705882353,crit,-1.1764705882352942
725,North battlefield,725,18,[-1  3  3  3  2  2 -2  3  3  3  3 -3  3  1  2  3  2 -3],11042.333333333334,32.888888888888886,crit,1.5
767,North cache,767,9,[-3  0 -3 -2 -1 -3 -3  3 -2],5326.555555555556,38.888888888888886,crit,-1.5555555555555556
963,North century,963,13,[-3 -3 -3 -3 -3 -3 -3  0 -3 -3 -1 -3 -3],6646.538461538462,38.84615384615385,crit,-2.6153846153846154
8852,North check,8852,13,[-3 -2 -3 -2  1 -3 -2  1 -3 -1  0 -2 -2],3040.076923076923,29.923076923076923,crit,-1.6153846153846154
17918,North consolidation,17918,8,[-1 -3 -3  2  1 -2  2  2],4497.75,42.5,crit,-0.25
14106,North detention,14106,10,[-3  3  3 -3 -1 -2 -1  2  2  3],4798.1,44.6,crit,0.3
12950,North discovery,12950,11,[ 1 -1  1 -3 -2  0  2 -2  3  2  0],6141.818181818182,34.18181818181818,crit,0.09090909090909091
2323,North dispute,2323,12,[-1  3 -2  0 -2  3 -3  3 -2  2 -2  2],4518.083333333333,28.416666666666668,crit,0.08333333333333333
6052,North essay,6052,12,[-3 -3 -3 -2 -3 -3  3 -3 -2 -2 -3 -3],3218.1666666666665,28.5,crit,-2.25
2083,North expectation,2083,41,"[-3 -2 -3  1 -3 -3 -3 -2 -3 -1 -3 -3 -2  0 -3 -3 -3 -1 -3 -3 -1 -3 -3 -2
 -3 -3 -3 -1 -3 -3 -3 -3 -3  3  1 -2 -3 -3 -3 -1 -1]",7418.195121951219,37.90243902439025,crit,-2.1707317073170733
3914,North factor,3914,11,[ 1  1 -2  3 -1 -3 -3 -2 -3 -3 -2],4170.0,34.18181818181818,crit,-1.2727272727272727
7696,North fairy,7696,9,[-3  1 -1 -2  2 -1 -2 -3 -3],2537.222222222222,37.55555555555556,crit,-1.3333333333333333
17209,North formulation,17209,11,[-3 -3 -3  1 -3 -3 -3 -3  0  1 -3],17061.18181818182,37.18181818181818,crit,-2.0
2949,North gardening,2949,20,[-3 -3  0 -3 -2 -1  2 -3 -3 -3 -1 -3 -3 -3 -3 -3  1  3  1  0],4238.55,32.26315789473684,crit,-1.5
4792,North guitar,4792,8,[-3 -3 -3 -3 -1 -3  0 -3],2560.375,27.875,crit,-2.375
5681,North high,5681,12,[-3  3 -2 -3 -3 -1  0 -1  0 -3 -3 -2],3312.9166666666665,29.666666666666668,crit,-1.5
4052,North imprisonment,4052,11,[-3 -2  0 -3 -1 -2 -2  3 -1 -2  1],5303.818181818182,30.181818181818183,crit,-1.0909090909090908
18230,North instinct,18230,9,[ 3  1 -3  1 -3  2 -3 -3 -3],3445.222222222222,30.444444444444443,crit,-0.8888888888888888
18957,North jaw,18957,12,[ 1  0 -3  0 -3 -3 -2 -2 -1  0 -3 -3],3957.5833333333335,39.5,crit,-1.5833333333333333
14895,North licensing,14895,10,[-2  3 -2 -3 -2  0 -1 -3 -3 -3],4971.6,27.9,crit,-1.6
17920,North menu,17920,9,[-1 -3 -2 -2 -3  0 -2 -1 -3],9451.0,31.666666666666668,crit,-1.8888888888888888
8391,North oxygen,8391,15,[-1 -1 -3 -3 -3 -3 -3 -3 -3 -3 -3  1 -3 -3 -3],3275.6,36.46666666666667,crit,-2.466666666666667
8592,North plastic,8592,12,[-1  0 -3 -3 -3 -3 -2  0 -2 -3 -3  3],5462.916666666667,34.75,crit,-1.6666666666666667
16771,North priority,16771,12,[ 2 -1  0 -1  3 -3  1  2 -2 -1 -2  3],4244.166666666667,34.25,crit,0.08333333333333333
8268,North probability,8268,16,[ 2 -2 -2  0  0 -3 -3  3 -2 -3 -3 -3 -3 -1 -3 -2],3553.25,35.9375,crit,-1.5625
18223,North prohibition,18223,13,[-3 -3 -2 -2 -1  0  3  2 -3 -1 -3  1 -3],3377.5384615384614,35.69230769230769,crit,-1.1538461538461537
8355,North recipient,8355,14,[ 3 -1 -2 -3 -3 -3  2 -2 -3  0 -1 -3 -1 -3],3637.214285714286,33.92857142857143,crit,-1.4285714285714286
12328,North response,12328,15,[-3 -3 -2 -3 -3 -3  2  1 -1 -3  2 -3 -1 -3 -3],4566.266666666666,32.8,crit,-1.7333333333333334
13050,North rifle,13050,8,[-2  2 -3 -1  0  0 -1 -3],6957.375,37.25,crit,-1.0
18116,North rite,18116,8,[ 2 -3  3 -2  0 -3 -2 -3],5862.0,36.75,crit,-1.0
10556,North rugby,10556,8,[-3 -3  0 -3 -3  1  2 -3],4054.375,44.125,crit,-1.5
9942,North sensation,9942,10,[-1 -3  0  0  1 -3 -3 -3 -3 -3],4828.3,41.7,crit,-1.8
10944,North sex,10944,12,[-3 -1 -1  3 -3 -3 -1 -3 -3 -2 -3 -2],3900.9166666666665,34.416666666666664,crit,-1.8333333333333333
7494,North shark,7494,11,[-1  3  3  2 -3  2 -2  3 -3  0 -1],5987.454545454545,30.272727272727273,crit,0.2727272727272727
2131,North short,2131,41,"[-3 -1 -3 -3 -3 -3 -3 -2 -3  0  0 -3 -2  1 -3 -3 -3 -3 -2 -3 -3 -3 -1 -3
 -3 -2 -3 -3 -3 -3 -3 -3 -3 -3 -3 -3 -3 -3 -3 -2 -3]",4011.6585365853657,37.8780487804878,crit,-2.5365853658536586
13771,North summary,13771,11,[-3 -1 -2 -3 -3 -3  2 -1  3 -1  0],3680.6363636363635,34.27272727272727,crit,-1.0909090909090908
10379,North tension,10379,10,[-3  1 -2  2 -3  2 -3 -3 -3  3],3973.8,38.6,crit,-0.9
18968,North testimony,18968,8,[ 2  1 -3 -2 -2 -3 -2 -2],4599.75,37.0,crit,-1.375
17175,North transfer,17175,9,[ 2  0  0  2  0  0  2 -3 -3],5624.888888888889,46.22222222222222,crit,0.0
14678,North treaty,14678,9,[ 3  2 -3 -1 -1 -1 -3  3  2],3895.0,30.333333333333332,crit,0.1111111111111111
12553,North tribunal,12553,8,[ 1 -2  0 -3 -2  3  0  3],3187.875,42.42857142857143,crit,0.0
9661,North vocabulary,9661,12,[-1 -2  1 -2 -3 -3  2 -3 -2  0 -3 -2],4298.75,31.25,crit,-1.5
5224,North waste,5224,13,[-3 -2 -2 -1 -1  0  2  1 -1 -3 -2 -1 -3],3576.153846153846,31.923076923076923,crit,-1.2307692307692308
2726,Norwegian abbey,2726,10,[ 3  2  3  0  3  3 -3  3 -2  3],5405.1,35.2,crit,1.5
4942,Norwegian activation,4942,9,[-1 -3 -1  0  2 -3  0 -2 -1],4056.777777777778,26.0,crit,-1.0
3620,Norwegian addiction,3620,11,[-1  1 -3  3  0 -2 -2  3 -2 -1 -1],4041.7272727272725,30.90909090909091,crit,-0.45454545454545453
10878,Norwegian allegation,10878,12,[-3 -3 -2 -2 -2  0  2 -1  3 -1  1  0],10759.166666666666,33.75,crit,-0.6666666666666666
9916,Norwegian amenity,9916,14,[ 1 -3  0  2 -3  2  2  0  1  3  0  2  3  3],7719.571428571428,33.42857142857143,crit,0.9285714285714286
797,Norwegian anatomy,797,10,[ 0  1 -2 -3  1  2  3  3 -3  1],7605.6,32.4,crit,0.3
12741,Norwegian ascent,12741,11,[ 1  3  0  3 -2  2  1 -2  3 -1  1],6274.363636363636,35.18181818181818,crit,0.8181818181818182
5255,Norwegian boiler,5255,17,[ 0  1  2 -3  0  1 -3  3  0  3  2  2  0  1 -3  0  1],3570.1176470588234,35.23529411764706,crit,0.4117647058823529
2144,Norwegian bubble,2144,9,[ 1 -2  1 -2 -1 -2 -1 -3 -2],4372.222222222223,29.444444444444443,crit,-1.2222222222222223
14721,Norwegian bull,14721,11,[ 2  3 -3  3  3 -2  3  1 -3 -3  0],8385.636363636364,28.0,crit,0.36363636363636365
9934,Norwegian computation,9934,9,[ 1  0 -3  3  3 -3  1 -2  3],3424.5555555555557,24.77777777777778,crit,0.3333333333333333
2054,Norwegian cue,2054,41,"[-2 -2 -3 -3 -2  1 -2 -3  1 -3 -3 -2  0 -2 -3  1 -2 -3 -2  0  0 -3 -1 -3
 -1  0  3 -3 -3 -3 -3 -2 -3  2 -3 -3  1 -3 -2 -2 -3]",3886.6341463414633,38.609756097560975,crit,-1.6829268292682926
8687,Norwegian detail,8687,11,[ 3  3 -3  1  0  3 -3  3  2 -1  3],4112.0,27.363636363636363,crit,1.0
7957,Norwegian disorder,7957,15,[-3  2 -3 -3 -2  3  0  1 -1 -2  0  3  2 -1 -1],4836.866666666667,33.333333333333336,crit,-0.3333333333333333
7896,Norwegian disturbance,7896,11,[-3  1 -2  2 -3  1  3  0 -3  3  0],5091.545454545455,40.90909090909091,crit,-0.09090909090909091
4063,Norwegian elimination,4063,17,[-3  1 -3 -3  2  2  0 -1  2 -2  2  0 -3  1 -2 -1  3],5107.941176470588,32.64705882352941,crit,-0.29411764705882354
10858,Norwegian epilepsy,10858,9,[-2 -3 -3  0  3 -1 -3 -1 -3],10506.777777777777,35.22222222222222,crit,-1.4444444444444444
6969,Norwegian equality,6969,13,[ 1  2  0  1  2  0  3 -3  3 -1  0  2 -3],3289.846153846154,32.53846153846154,crit,0.5384615384615384
15887,Norwegian equilibrium,15887,14,[-3 -2  0 -1  0 -3  1 -3  3 -3  0  1 -2  0],5352.428571428572,37.714285714285715,crit,-0.8571428571428571
7828,Norwegian fairy,7828,14,[ 3  0  1 -1  2  0  3  3  3  3 -2  0 -3  3],4316.571428571428,33.5,crit,1.0714285714285714
13247,Norwegian feedback,13247,8,[-3  1  0  1 -3  1  3  1],2794.75,31.857142857142858,crit,0.125
9989,Norwegian garden,9989,8,[1 2 3 0 2 3 0 3],3981.125,30.875,crit,1.75
3005,Norwegian governance,3005,11,[ 1  2  1 -3  3  3  3  3  2  2  3],4487.727272727273,34.09090909090909,crit,1.8181818181818181
15305,Norwegian grip,15305,10,[-3  1  0 -2  0 -1 -2 -2 -3  3],2322.9,32.4,crit,-0.9
11255,Norwegian habitat,11255,13,[ 3  3  3  3  3  1  3  2 -2  3  3  3  3],3834.6153846153848,35.92307692307692,crit,2.3846153846153846
14182,Norwegian headline,14182,12,[ 3  3  1  0 -3  3  3  3  2  1  3  1],5774.0,31.083333333333332,crit,1.6666666666666667
16455,Norwegian honey,16455,11,[2 1 3 3 3 3 3 0 2 3 3],4486.272727272727,31.90909090909091,crit,2.3636363636363638
5665,Norwegian inequality,5665,10,[ 0  0 -2  1  3  3  2 -2  2  3],3992.2,40.1,crit,1.0
3580,Norwegian leisure,3580,11,[ 1 -2 -3  3  3  1  3 -2  0  2  2],8243.727272727272,34.54545454545455,crit,0.7272727272727273
13882,Norwegian mall,13882,11,[ 3  3  3  3  3  3 -2  3  3  3  3],3430.181818181818,34.09090909090909,crit,2.5454545454545454
6017,Norwegian net,6017,11,[-3 -3  0  0 -3  3  3  3 -3 -3  2],8299.727272727272,38.0,crit,-0.36363636363636365
18687,Norwegian nut,18687,15,[ 3  0  3  2  3 -3  1 -3  1 -3  1  1  2  3  1],4115.666666666667,37.733333333333334,crit,0.8
17274,Norwegian pillar,17274,10,[-3  2 -1  1  3 -3 -3  0  2  1],3731.4,29.0,crit,-0.1
14529,Norwegian presentation,14529,10,[-3  3  2 -2  1  2  3  2  3 -3],3753.7,38.8,crit,0.8
18937,Norwegian radar,18937,10,[-1  2  2  3  3  2  2  0  2  3],8952.9,40.9,crit,1.8
4555,Norwegian refund,4555,12,[ 1  1  3  3 -2 -2 -2  2  2 -3  0  3],4705.166666666667,33.166666666666664,crit,0.5
16235,Norwegian reign,16235,16,[-2  1 -1  3  3 -2  1 -3  1  0  3  2  2  1 -1  1],4927.6875,35.0,crit,0.5625
