rt,stimulus,response,function_name,item_id,target_type,condition,term,sentence,list,task_type,trial_type,trial_index,time_elapsed,internal_node_id,subject_id,study_id,session_id,rng_seed,response_label,responded_total_nonsense
8102,"<div style=""font-size:20px;""><p>The number 10 being a multiple of 5</p></div>",1,multiple,6,abstract_numeral,target,the number 10,the number 10 being a multiple of 5,13,critical,html-keyboard-response,7,114095,0.0-4.0-0.0,anon_subject_31,6733d46d557efbcaf35e42fb,673513d2de4e1fd7aed16dd6,0.04599001973491501,not_total_nonsense,False
3492,"<div style=""font-size:20px;""><p>Dividing 12 by a shirt</p></div>",0,dividing,10,abstract_numeral,far2,a shirt,dividing 12 by a shirt,13,critical,html-keyboard-response,9,118600,0.0-4.0-0.1,anon_subject_31,6733d46d557efbcaf35e42fb,673513d2de4e1fd7aed16dd6,0.04599001973491501,total_nonsense,True
2959,"<div style=""font-size:20px;""><p>Adding a wall to 79</p></div>",0,adding,11,abstract_numeral,far2,a wall,adding a wall to 79,13,critical,html-keyboard-response,11,122576,0.0-4.0-0.2,anon_subject_31,6733d46d557efbcaf35e42fb,673513d2de4e1fd7aed16dd6,0.04599001973491501,total_nonsense,True
4915,"<div style=""font-size:20px;""><p>A crumb being greater than 10</p></div>",0,greater_than,7,abstract_numeral,far2,a crumb,a crumb being greater than 10,13,critical,html-keyboard-response,13,128504,0.0-4.0-0.3,anon_subject_31,6733d46d557efbcaf35e42fb,673513d2de4e1fd7aed16dd6,0.04599001973491501,total_nonsense,True
3617,"<div style=""font-size:20px;""><p>The number 13 being a prime number</p></div>",1,is_prime,8,abstract_numeral,target,the number 13,the number 13 being a prime number,13,critical,html-keyboard-response,15,133140,0.0-4.0-0.4,anon_subject_31,6733d46d557efbcaf35e42fb,673513d2de4e1fd7aed16dd6,0.04599001973491501,not_total_nonsense,False
2856,"<div style=""font-size:20px;""><p>The number 20 being entertained by a podcast</p></div>",0,entertained,5,concrete_animate,far1,the number 20,the number 20 being entertained by a podcast,13,critical,html-keyboard-response,17,137000,0.0-4.0-0.5,anon_subject_31,6733d46d557efbcaf35e42fb,673513d2de4e1fd7aed16dd6,0.04599001973491501,total_nonsense,True
4311,"<div style=""font-size:20px;""><p>Taking the square root of a toddler</p></div>",0,square_root,9,abstract_numeral,far1,a toddler,taking the square root of a toddler,13,critical,html-keyboard-response,19,142325,0.0-4.0-0.6,anon_subject_31,6733d46d557efbcaf35e42fb,673513d2de4e1fd7aed16dd6,0.04599001973491501,total_nonsense,True
4866,"<div style=""font-size:20px;""><p>A door feeling regretful</p></div>",0,regret,0,concrete_animate,near,a door,a door feeling regretful,13,critical,html-keyboard-response,21,148206,0.0-4.0-0.7,anon_subject_31,6733d46d557efbcaf35e42fb,673513d2de4e1fd7aed16dd6,0.04599001973491501,total_nonsense,True
1969,"<div style=""font-size:20px;""><p>The number 4 being surprised by a news article</p></div>",0,surprised,4,concrete_animate,far1,the number 4,the number 4 being surprised by a news article,13,critical,html-keyboard-response,23,151175,0.0-4.0-0.8,anon_subject_31,6733d46d557efbcaf35e42fb,673513d2de4e1fd7aed16dd6,0.04599001973491501,total_nonsense,True
8334,"<div style=""font-size:20px;""><p>A rock writing a play</p></div>",1,write_play,2,concrete_animate,near,a rock,a rock writing a play,13,critical,html-keyboard-response,25,160517,0.0-4.0-0.9,anon_subject_31,6733d46d557efbcaf35e42fb,673513d2de4e1fd7aed16dd6,0.04599001973491501,not_total_nonsense,False
2598,"<div style=""font-size:20px;""><p>A woman applying for a job</p></div>",1,apply_job,1,concrete_animate,target,a woman,a woman applying for a job,13,critical,html-keyboard-response,27,164124,0.0-4.0-0.10,anon_subject_31,6733d46d557efbcaf35e42fb,673513d2de4e1fd7aed16dd6,0.04599001973491501,not_total_nonsense,False
2784,"<div style=""font-size:20px;""><p>A pill being amused by a TV show</p></div>",0,amused,3,concrete_animate,near,a pill,a pill being amused by a TV show,13,critical,html-keyboard-response,29,167915,0.0-4.0-0.11,anon_subject_31,6733d46d557efbcaf35e42fb,673513d2de4e1fd7aed16dd6,0.04599001973491501,total_nonsense,True
2463,"<div style=""font-size:20px;""><p>A mile being surprised by a news article</p></div>",0,surprised,4,concrete_animate,far2,a mile,a mile being surprised by a news article,12,critical,html-keyboard-response,7,167807,0.0-4.0-0.0,anon_subject_9,6733d46d557efbcaf35e42fb,67351bf1ee106ffe25639ae5,0.9854263743088421,total_nonsense,True
2336,"<div style=""font-size:20px;""><p>Taking the square root of a month</p></div>",0,square_root,9,abstract_numeral,near,a month,taking the square root of a month,12,critical,html-keyboard-response,9,171150,0.0-4.0-0.1,anon_subject_9,6733d46d557efbcaf35e42fb,67351bf1ee106ffe25639ae5,0.9854263743088421,total_nonsense,True
3087,"<div style=""font-size:20px;""><p>A man being a multiple of 5</p></div>",0,multiple,6,abstract_numeral,far1,a man,a man being a multiple of 5,12,critical,html-keyboard-response,11,175244,0.0-4.0-0.2,anon_subject_9,6733d46d557efbcaf35e42fb,67351bf1ee106ffe25639ae5,0.9854263743088421,total_nonsense,True
1266,"<div style=""font-size:20px;""><p>A girl writing a play</p></div>",1,write_play,2,concrete_animate,target,a girl,a girl writing a play,12,critical,html-keyboard-response,13,177525,0.0-4.0-0.3,anon_subject_9,6733d46d557efbcaf35e42fb,67351bf1ee106ffe25639ae5,0.9854263743088421,not_total_nonsense,False
1529,"<div style=""font-size:20px;""><p>A toddler being amused by a TV show</p></div>",1,amused,3,concrete_animate,target,a toddler,a toddler being amused by a TV show,12,critical,html-keyboard-response,15,180060,0.0-4.0-0.4,anon_subject_9,6733d46d557efbcaf35e42fb,67351bf1ee106ffe25639ae5,0.9854263743088421,not_total_nonsense,False
1850,"<div style=""font-size:20px;""><p>A kilogram being a prime number</p></div>",1,is_prime,8,abstract_numeral,near,a kilogram,a kilogram being a prime number,12,critical,html-keyboard-response,17,182923,0.0-4.0-0.5,anon_subject_9,6733d46d557efbcaf35e42fb,67351bf1ee106ffe25639ae5,0.9854263743088421,not_total_nonsense,False
1252,"<div style=""font-size:20px;""><p>An inch applying for a job</p></div>",0,apply_job,1,concrete_animate,far2,an inch,an inch applying for a job,12,critical,html-keyboard-response,19,185192,0.0-4.0-0.6,anon_subject_9,6733d46d557efbcaf35e42fb,67351bf1ee106ffe25639ae5,0.9854263743088421,total_nonsense,True
1826,"<div style=""font-size:20px;""><p>Dividing 12 by a teenager</p></div>",0,dividing,10,abstract_numeral,far1,a teenager,dividing 12 by a teenager,12,critical,html-keyboard-response,21,188037,0.0-4.0-0.7,anon_subject_9,6733d46d557efbcaf35e42fb,67351bf1ee106ffe25639ae5,0.9854263743088421,total_nonsense,True
2213,"<div style=""font-size:20px;""><p>Adding a wall to 79</p></div>",0,adding,11,abstract_numeral,far2,a wall,adding a wall to 79,12,critical,html-keyboard-response,23,191261,0.0-4.0-0.8,anon_subject_9,6733d46d557efbcaf35e42fb,67351bf1ee106ffe25639ae5,0.9854263743088421,total_nonsense,True
2536,"<div style=""font-size:20px;""><p>A door feeling regretful</p></div>",1,regret,0,concrete_animate,near,a door,a door feeling regretful,12,critical,html-keyboard-response,25,194802,0.0-4.0-0.9,anon_subject_9,6733d46d557efbcaf35e42fb,67351bf1ee106ffe25639ae5,0.9854263743088421,not_total_nonsense,False
1507,"<div style=""font-size:20px;""><p>A boy being entertained by a podcast</p></div>",1,entertained,5,concrete_animate,target,a boy,a boy being entertained by a podcast,12,critical,html-keyboard-response,27,197324,0.0-4.0-0.10,anon_subject_9,6733d46d557efbcaf35e42fb,67351bf1ee106ffe25639ae5,0.9854263743088421,not_total_nonsense,False
2514,"<div style=""font-size:20px;""><p>A woman being greater than 10</p></div>",1,greater_than,7,abstract_numeral,far1,a woman,a woman being greater than 10,12,critical,html-keyboard-response,29,200851,0.0-4.0-0.11,anon_subject_9,6733d46d557efbcaf35e42fb,67351bf1ee106ffe25639ae5,0.9854263743088421,not_total_nonsense,False
3426,"<div style=""font-size:20px;""><p>The number 10 being a multiple of 5</p></div>",1,multiple,6,abstract_numeral,target,the number 10,the number 10 being a multiple of 5,7,critical,html-keyboard-response,7,67828,0.0-4.0-0.0,anon_subject_0,6733d46d557efbcaf35e42fb,67351317d6facec4eb4781c5,0.7118278326529561,not_total_nonsense,False
3145,"<div style=""font-size:20px;""><p>A girl writing a play</p></div>",1,write_play,2,concrete_animate,target,a girl,a girl writing a play,7,critical,html-keyboard-response,9,71984,0.0-4.0-0.1,anon_subject_0,6733d46d557efbcaf35e42fb,67351317d6facec4eb4781c5,0.7118278326529561,not_total_nonsense,False
4352,"<div style=""font-size:20px;""><p>A liter feeling regretful</p></div>",0,regret,0,concrete_animate,far2,a liter,a liter feeling regretful,7,critical,html-keyboard-response,11,77343,0.0-4.0-0.2,anon_subject_0,6733d46d557efbcaf35e42fb,67351317d6facec4eb4781c5,0.7118278326529561,total_nonsense,True
3945,"<div style=""font-size:20px;""><p>A week being entertained by a podcast</p></div>",0,entertained,5,concrete_animate,far2,a week,a week being entertained by a podcast,7,critical,html-keyboard-response,13,82305,0.0-4.0-0.3,anon_subject_0,6733d46d557efbcaf35e42fb,67351317d6facec4eb4781c5,0.7118278326529561,total_nonsense,True
2410,"<div style=""font-size:20px;""><p>Adding a boy to 79</p></div>",0,adding,11,abstract_numeral,far1,a boy,adding a boy to 79,7,critical,html-keyboard-response,15,85727,0.0-4.0-0.4,anon_subject_0,6733d46d557efbcaf35e42fb,67351317d6facec4eb4781c5,0.7118278326529561,total_nonsense,True
2207,"<div style=""font-size:20px;""><p>Taking the square root of a toddler</p></div>",0,square_root,9,abstract_numeral,far1,a toddler,taking the square root of a toddler,7,critical,html-keyboard-response,17,88944,0.0-4.0-0.5,anon_subject_0,6733d46d557efbcaf35e42fb,67351317d6facec4eb4781c5,0.7118278326529561,total_nonsense,True
3065,"<div style=""font-size:20px;""><p>A month being amused by a TV show</p></div>",0,amused,3,concrete_animate,far2,a month,a month being amused by a TV show,7,critical,html-keyboard-response,19,93013,0.0-4.0-0.6,anon_subject_0,6733d46d557efbcaf35e42fb,67351317d6facec4eb4781c5,0.7118278326529561,total_nonsense,True
5973,"<div style=""font-size:20px;""><p>Dividing 12 by a mile</p></div>",0,dividing,10,abstract_numeral,near,a mile,dividing 12 by a mile,7,critical,html-keyboard-response,21,99999,0.0-4.0-0.7,anon_subject_0,6733d46d557efbcaf35e42fb,67351317d6facec4eb4781c5,0.7118278326529561,total_nonsense,True
3548,"<div style=""font-size:20px;""><p>A kilogram being a prime number</p></div>",0,is_prime,8,abstract_numeral,near,a kilogram,a kilogram being a prime number,7,critical,html-keyboard-response,23,104560,0.0-4.0-0.8,anon_subject_0,6733d46d557efbcaf35e42fb,67351317d6facec4eb4781c5,0.7118278326529561,total_nonsense,True
6908,"<div style=""font-size:20px;""><p>An inch being greater than 10</p></div>",0,greater_than,7,abstract_numeral,near,an inch,an inch being greater than 10,7,critical,html-keyboard-response,25,112480,0.0-4.0-0.9,anon_subject_0,6733d46d557efbcaf35e42fb,67351317d6facec4eb4781c5,0.7118278326529561,total_nonsense,True
3744,"<div style=""font-size:20px;""><p>A teenager being surprised by a news article</p></div>",1,surprised,4,concrete_animate,target,a teenager,a teenager being surprised by a news article,7,critical,html-keyboard-response,27,117236,0.0-4.0-0.10,anon_subject_0,6733d46d557efbcaf35e42fb,67351317d6facec4eb4781c5,0.7118278326529561,not_total_nonsense,False
1630,"<div style=""font-size:20px;""><p>The number 12 applying for a job</p></div>",0,apply_job,1,concrete_animate,far1,the number 12,the number 12 applying for a job,7,critical,html-keyboard-response,29,119873,0.0-4.0-0.11,anon_subject_0,6733d46d557efbcaf35e42fb,67351317d6facec4eb4781c5,0.7118278326529561,total_nonsense,True
2728,"<div style=""font-size:20px;""><p>A rock being a prime number</p></div>",0,is_prime,8,abstract_numeral,far2,a rock,a rock being a prime number,2,critical,html-keyboard-response,7,108738,0.0-4.0-0.0,anon_subject_10,6733d46d557efbcaf35e42fb,67351becd46a0b33a2bcee6a,0.5645781394558524,total_nonsense,True
4389,"<div style=""font-size:20px;""><p>Dividing 12 by a mile</p></div>",0,dividing,10,abstract_numeral,near,a mile,dividing 12 by a mile,2,critical,html-keyboard-response,9,114136,0.0-4.0-0.1,anon_subject_10,6733d46d557efbcaf35e42fb,67351becd46a0b33a2bcee6a,0.5645781394558524,total_nonsense,True
3284,"<div style=""font-size:20px;""><p>The number 13 writing a play</p></div>",0,write_play,2,concrete_animate,far1,the number 13,the number 13 writing a play,2,critical,html-keyboard-response,11,118429,0.0-4.0-0.2,anon_subject_10,6733d46d557efbcaf35e42fb,67351becd46a0b33a2bcee6a,0.5645781394558524,total_nonsense,True
3448,"<div style=""font-size:20px;""><p>Taking the square root of a month</p></div>",0,square_root,9,abstract_numeral,near,a month,taking the square root of a month,2,critical,html-keyboard-response,13,122884,0.0-4.0-0.3,anon_subject_10,6733d46d557efbcaf35e42fb,67351becd46a0b33a2bcee6a,0.5645781394558524,total_nonsense,True
3849,"<div style=""font-size:20px;""><p>A week being entertained by a podcast</p></div>",1,entertained,5,concrete_animate,far2,a week,a week being entertained by a podcast,2,critical,html-keyboard-response,15,127740,0.0-4.0-0.4,anon_subject_10,6733d46d557efbcaf35e42fb,67351becd46a0b33a2bcee6a,0.5645781394558524,not_total_nonsense,False
2967,"<div style=""font-size:20px;""><p>A toddler being amused by a TV show</p></div>",1,amused,3,concrete_animate,target,a toddler,a toddler being amused by a TV show,2,critical,html-keyboard-response,17,131713,0.0-4.0-0.5,anon_subject_10,6733d46d557efbcaf35e42fb,67351becd46a0b33a2bcee6a,0.5645781394558524,not_total_nonsense,False
3219,"<div style=""font-size:20px;""><p>Adding a boy to 79</p></div>",0,adding,11,abstract_numeral,far1,a boy,adding a boy to 79,2,critical,html-keyboard-response,19,135939,0.0-4.0-0.6,anon_subject_10,6733d46d557efbcaf35e42fb,67351becd46a0b33a2bcee6a,0.5645781394558524,total_nonsense,True
2463,"<div style=""font-size:20px;""><p>A crumb applying for a job</p></div>",0,apply_job,1,concrete_animate,near,a crumb,a crumb applying for a job,2,critical,html-keyboard-response,21,139408,0.0-4.0-0.7,anon_subject_10,6733d46d557efbcaf35e42fb,67351becd46a0b33a2bcee6a,0.5645781394558524,total_nonsense,True
1933,"<div style=""font-size:20px;""><p>A door being a multiple of 5</p></div>",0,multiple,6,abstract_numeral,far2,a door,a door being a multiple of 5,2,critical,html-keyboard-response,23,142346,0.0-4.0-0.8,anon_subject_10,6733d46d557efbcaf35e42fb,67351becd46a0b33a2bcee6a,0.5645781394558524,total_nonsense,True
3323,"<div style=""font-size:20px;""><p>The number 10 feeling regretful</p></div>",0,regret,0,concrete_animate,far1,the number 10,the number 10 feeling regretful,2,critical,html-keyboard-response,25,146675,0.0-4.0-0.9,anon_subject_10,6733d46d557efbcaf35e42fb,67351becd46a0b33a2bcee6a,0.5645781394558524,total_nonsense,True
2398,"<div style=""font-size:20px;""><p>The number 12 being greater than 10</p></div>",1,greater_than,7,abstract_numeral,target,the number 12,the number 12 being greater than 10,2,critical,html-keyboard-response,27,150078,0.0-4.0-0.10,anon_subject_10,6733d46d557efbcaf35e42fb,67351becd46a0b33a2bcee6a,0.5645781394558524,not_total_nonsense,False
3272,"<div style=""font-size:20px;""><p>A teenager being surprised by a news article</p></div>",1,surprised,4,concrete_animate,target,a teenager,a teenager being surprised by a news article,2,critical,html-keyboard-response,29,154354,0.0-4.0-0.11,anon_subject_10,6733d46d557efbcaf35e42fb,67351becd46a0b33a2bcee6a,0.5645781394558524,not_total_nonsense,False
7070,"<div style=""font-size:20px;""><p>Dividing 12 by a shirt</p></div>",0,dividing,10,abstract_numeral,far2,a shirt,dividing 12 by a shirt,10,critical,html-keyboard-response,7,154357,0.0-4.0-0.0,anon_subject_17,6733d46d557efbcaf35e42fb,6735131904926af3a101cd4b,0.5415239482663479,total_nonsense,True
6516,"<div style=""font-size:20px;""><p>Adding a week to 79</p></div>",0,adding,11,abstract_numeral,near,a week,adding a week to 79,10,critical,html-keyboard-response,9,161876,0.0-4.0-0.1,anon_subject_17,6733d46d557efbcaf35e42fb,6735131904926af3a101cd4b,0.5415239482663479,total_nonsense,True
3557,"<div style=""font-size:20px;""><p>The number 20 being entertained by a podcast</p></div>",0,entertained,5,concrete_animate,far1,the number 20,the number 20 being entertained by a podcast,10,critical,html-keyboard-response,11,166435,0.0-4.0-0.2,anon_subject_17,6733d46d557efbcaf35e42fb,6735131904926af3a101cd4b,0.5415239482663479,total_nonsense,True
9685,"<div style=""font-size:20px;""><p>A rock being a prime number</p></div>",0,is_prime,8,abstract_numeral,far2,a rock,a rock being a prime number,10,critical,html-keyboard-response,13,177123,0.0-4.0-0.3,anon_subject_17,6733d46d557efbcaf35e42fb,6735131904926af3a101cd4b,0.5415239482663479,total_nonsense,True
2537,"<div style=""font-size:20px;""><p>The number 13 writing a play</p></div>",0,write_play,2,concrete_animate,far1,the number 13,the number 13 writing a play,10,critical,html-keyboard-response,15,180663,0.0-4.0-0.4,anon_subject_17,6733d46d557efbcaf35e42fb,6735131904926af3a101cd4b,0.5415239482663479,total_nonsense,True
2644,"<div style=""font-size:20px;""><p>Taking the square root of a pill</p></div>",0,square_root,9,abstract_numeral,far2,a pill,taking the square root of a pill,10,critical,html-keyboard-response,17,184309,0.0-4.0-0.5,anon_subject_17,6733d46d557efbcaf35e42fb,6735131904926af3a101cd4b,0.5415239482663479,total_nonsense,True
3496,"<div style=""font-size:20px;""><p>A toddler being amused by a TV show</p></div>",1,amused,3,concrete_animate,target,a toddler,a toddler being amused by a TV show,10,critical,html-keyboard-response,19,188808,0.0-4.0-0.6,anon_subject_17,6733d46d557efbcaf35e42fb,6735131904926af3a101cd4b,0.5415239482663479,not_total_nonsense,False
3513,"<div style=""font-size:20px;""><p>The number 10 feeling regretful</p></div>",0,regret,0,concrete_animate,far1,the number 10,the number 10 feeling regretful,10,critical,html-keyboard-response,21,193324,0.0-4.0-0.7,anon_subject_17,6733d46d557efbcaf35e42fb,6735131904926af3a101cd4b,0.5415239482663479,total_nonsense,True
6980,"<div style=""font-size:20px;""><p>A crumb applying for a job</p></div>",0,apply_job,1,concrete_animate,near,a crumb,a crumb applying for a job,10,critical,html-keyboard-response,23,201306,0.0-4.0-0.8,anon_subject_17,6733d46d557efbcaf35e42fb,6735131904926af3a101cd4b,0.5415239482663479,total_nonsense,True
3613,"<div style=""font-size:20px;""><p>The number 12 being greater than 10</p></div>",1,greater_than,7,abstract_numeral,target,the number 12,the number 12 being greater than 10,10,critical,html-keyboard-response,25,205920,0.0-4.0-0.9,anon_subject_17,6733d46d557efbcaf35e42fb,6735131904926af3a101cd4b,0.5415239482663479,not_total_nonsense,False
2220,"<div style=""font-size:20px;""><p>A teenager being surprised by a news article</p></div>",1,surprised,4,concrete_animate,target,a teenager,a teenager being surprised by a news article,10,critical,html-keyboard-response,27,209142,0.0-4.0-0.10,anon_subject_17,6733d46d557efbcaf35e42fb,6735131904926af3a101cd4b,0.5415239482663479,not_total_nonsense,False
9273,"<div style=""font-size:20px;""><p>A liter being a multiple of 5</p></div>",0,multiple,6,abstract_numeral,near,a liter,a liter being a multiple of 5,10,critical,html-keyboard-response,29,219417,0.0-4.0-0.11,anon_subject_17,6733d46d557efbcaf35e42fb,6735131904926af3a101cd4b,0.5415239482663479,total_nonsense,True
7116,"<div style=""font-size:20px;""><p>A door feeling regretful</p></div>",1,regret,0,concrete_animate,near,a door,a door feeling regretful,13,critical,html-keyboard-response,7,86572,0.0-4.0-0.0,anon_subject_16,6733d46d557efbcaf35e42fb,673513ed3414b4da0fe6e27d,0.9376457925890787,not_total_nonsense,False
4224,"<div style=""font-size:20px;""><p>The number 13 being a prime number</p></div>",1,is_prime,8,abstract_numeral,target,the number 13,the number 13 being a prime number,13,critical,html-keyboard-response,9,91798,0.0-4.0-0.1,anon_subject_16,6733d46d557efbcaf35e42fb,673513ed3414b4da0fe6e27d,0.9376457925890787,not_total_nonsense,False
4518,"<div style=""font-size:20px;""><p>Dividing 12 by a shirt</p></div>",0,dividing,10,abstract_numeral,far2,a shirt,dividing 12 by a shirt,13,critical,html-keyboard-response,11,97317,0.0-4.0-0.2,anon_subject_16,6733d46d557efbcaf35e42fb,673513ed3414b4da0fe6e27d,0.9376457925890787,total_nonsense,True
2854,"<div style=""font-size:20px;""><p>A rock writing a play</p></div>",1,write_play,2,concrete_animate,near,a rock,a rock writing a play,13,critical,html-keyboard-response,13,101172,0.0-4.0-0.3,anon_subject_16,6733d46d557efbcaf35e42fb,673513ed3414b4da0fe6e27d,0.9376457925890787,not_total_nonsense,False
8504,"<div style=""font-size:20px;""><p>The number 20 being entertained by a podcast</p></div>",0,entertained,5,concrete_animate,far1,the number 20,the number 20 being entertained by a podcast,13,critical,html-keyboard-response,15,110678,0.0-4.0-0.4,anon_subject_16,6733d46d557efbcaf35e42fb,673513ed3414b4da0fe6e27d,0.9376457925890787,total_nonsense,True
1918,"<div style=""font-size:20px;""><p>A pill being amused by a TV show</p></div>",1,amused,3,concrete_animate,near,a pill,a pill being amused by a TV show,13,critical,html-keyboard-response,17,113597,0.0-4.0-0.5,anon_subject_16,6733d46d557efbcaf35e42fb,673513ed3414b4da0fe6e27d,0.9376457925890787,not_total_nonsense,False
4126,"<div style=""font-size:20px;""><p>The number 10 being a multiple of 5</p></div>",1,multiple,6,abstract_numeral,target,the number 10,the number 10 being a multiple of 5,13,critical,html-keyboard-response,19,118725,0.0-4.0-0.6,anon_subject_16,6733d46d557efbcaf35e42fb,673513ed3414b4da0fe6e27d,0.9376457925890787,not_total_nonsense,False
2557,"<div style=""font-size:20px;""><p>Adding a wall to 79</p></div>",0,adding,11,abstract_numeral,far2,a wall,adding a wall to 79,13,critical,html-keyboard-response,21,122283,0.0-4.0-0.7,anon_subject_16,6733d46d557efbcaf35e42fb,673513ed3414b4da0fe6e27d,0.9376457925890787,total_nonsense,True
2527,"<div style=""font-size:20px;""><p>Taking the square root of a toddler</p></div>",0,square_root,9,abstract_numeral,far1,a toddler,taking the square root of a toddler,13,critical,html-keyboard-response,23,125810,0.0-4.0-0.8,anon_subject_16,6733d46d557efbcaf35e42fb,673513ed3414b4da0fe6e27d,0.9376457925890787,total_nonsense,True
2284,"<div style=""font-size:20px;""><p>The number 4 being surprised by a news article</p></div>",0,surprised,4,concrete_animate,far1,the number 4,the number 4 being surprised by a news article,13,critical,html-keyboard-response,25,129096,0.0-4.0-0.9,anon_subject_16,6733d46d557efbcaf35e42fb,673513ed3414b4da0fe6e27d,0.9376457925890787,total_nonsense,True
2514,"<div style=""font-size:20px;""><p>A crumb being greater than 10</p></div>",0,greater_than,7,abstract_numeral,far2,a crumb,a crumb being greater than 10,13,critical,html-keyboard-response,27,132612,0.0-4.0-0.10,anon_subject_16,6733d46d557efbcaf35e42fb,673513ed3414b4da0fe6e27d,0.9376457925890787,total_nonsense,True
2700,"<div style=""font-size:20px;""><p>A woman applying for a job</p></div>",1,apply_job,1,concrete_animate,target,a woman,a woman applying for a job,13,critical,html-keyboard-response,29,136313,0.0-4.0-0.11,anon_subject_16,6733d46d557efbcaf35e42fb,673513ed3414b4da0fe6e27d,0.9376457925890787,not_total_nonsense,False
13632,"<div style=""font-size:20px;""><p>Adding a week to 79</p></div>",0,adding,11,abstract_numeral,near,a week,adding a week to 79,10,critical,html-keyboard-response,7,118737,0.0-4.0-0.0,anon_subject_29,6733d46d557efbcaf35e42fb,673513b17a9c60b385d4fb57,0.5466550055401889,total_nonsense,True
7909,"<div style=""font-size:20px;""><p>A rock being a prime number</p></div>",0,is_prime,8,abstract_numeral,far2,a rock,a rock being a prime number,10,critical,html-keyboard-response,9,127657,0.0-4.0-0.1,anon_subject_29,6733d46d557efbcaf35e42fb,673513b17a9c60b385d4fb57,0.5466550055401889,total_nonsense,True
8061,"<div style=""font-size:20px;""><p>The number 13 writing a play</p></div>",0,write_play,2,concrete_animate,far1,the number 13,the number 13 writing a play,10,critical,html-keyboard-response,11,136728,0.0-4.0-0.2,anon_subject_29,6733d46d557efbcaf35e42fb,673513b17a9c60b385d4fb57,0.5466550055401889,total_nonsense,True
10083,"<div style=""font-size:20px;""><p>A crumb applying for a job</p></div>",1,apply_job,1,concrete_animate,near,a crumb,a crumb applying for a job,10,critical,html-keyboard-response,13,147816,0.0-4.0-0.3,anon_subject_29,6733d46d557efbcaf35e42fb,673513b17a9c60b385d4fb57,0.5466550055401889,not_total_nonsense,False
9042,"<div style=""font-size:20px;""><p>The number 20 being entertained by a podcast</p></div>",0,entertained,5,concrete_animate,far1,the number 20,the number 20 being entertained by a podcast,10,critical,html-keyboard-response,15,157865,0.0-4.0-0.4,anon_subject_29,6733d46d557efbcaf35e42fb,673513b17a9c60b385d4fb57,0.5466550055401889,total_nonsense,True
5618,"<div style=""font-size:20px;""><p>A toddler being amused by a TV show</p></div>",1,amused,3,concrete_animate,target,a toddler,a toddler being amused by a TV show,10,critical,html-keyboard-response,17,164496,0.0-4.0-0.5,anon_subject_29,6733d46d557efbcaf35e42fb,673513b17a9c60b385d4fb57,0.5466550055401889,not_total_nonsense,False
5433,"<div style=""font-size:20px;""><p>Taking the square root of a pill</p></div>",0,square_root,9,abstract_numeral,far2,a pill,taking the square root of a pill,10,critical,html-keyboard-response,19,170944,0.0-4.0-0.6,anon_subject_29,6733d46d557efbcaf35e42fb,673513b17a9c60b385d4fb57,0.5466550055401889,total_nonsense,True
5343,"<div style=""font-size:20px;""><p>The number 10 feeling regretful</p></div>",0,regret,0,concrete_animate,far1,the number 10,the number 10 feeling regretful,10,critical,html-keyboard-response,21,177296,0.0-4.0-0.7,anon_subject_29,6733d46d557efbcaf35e42fb,673513b17a9c60b385d4fb57,0.5466550055401889,total_nonsense,True
3586,"<div style=""font-size:20px;""><p>Dividing 12 by a shirt</p></div>",0,dividing,10,abstract_numeral,far2,a shirt,dividing 12 by a shirt,10,critical,html-keyboard-response,23,181888,0.0-4.0-0.8,anon_subject_29,6733d46d557efbcaf35e42fb,673513b17a9c60b385d4fb57,0.5466550055401889,total_nonsense,True
4154,"<div style=""font-size:20px;""><p>A teenager being surprised by a news article</p></div>",1,surprised,4,concrete_animate,target,a teenager,a teenager being surprised by a news article,10,critical,html-keyboard-response,25,187056,0.0-4.0-0.9,anon_subject_29,6733d46d557efbcaf35e42fb,673513b17a9c60b385d4fb57,0.5466550055401889,not_total_nonsense,False
9125,"<div style=""font-size:20px;""><p>A liter being a multiple of 5</p></div>",0,multiple,6,abstract_numeral,near,a liter,a liter being a multiple of 5,10,critical,html-keyboard-response,27,197193,0.0-4.0-0.10,anon_subject_29,6733d46d557efbcaf35e42fb,673513b17a9c60b385d4fb57,0.5466550055401889,total_nonsense,True
5369,"<div style=""font-size:20px;""><p>The number 12 being greater than 10</p></div>",1,greater_than,7,abstract_numeral,target,the number 12,the number 12 being greater than 10,10,critical,html-keyboard-response,29,203575,0.0-4.0-0.11,anon_subject_29,6733d46d557efbcaf35e42fb,673513b17a9c60b385d4fb57,0.5466550055401889,not_total_nonsense,False
5659,"<div style=""font-size:20px;""><p>A week being entertained by a podcast</p></div>",1,entertained,5,concrete_animate,far2,a week,a week being entertained by a podcast,6,critical,html-keyboard-response,7,62640,0.0-4.0-0.0,anon_subject_11,6733d46d557efbcaf35e42fb,67351be4953358323111a0b8,0.6666653023528891,not_total_nonsense,False
3695,"<div style=""font-size:20px;""><p>The number 12 applying for a job</p></div>",0,apply_job,1,concrete_animate,far1,the number 12,the number 12 applying for a job,6,critical,html-keyboard-response,9,67338,0.0-4.0-0.1,anon_subject_11,6733d46d557efbcaf35e42fb,67351be4953358323111a0b8,0.6666653023528891,total_nonsense,True
4279,"<div style=""font-size:20px;""><p>A liter being a multiple of 5</p></div>",1,multiple,6,abstract_numeral,near,a liter,a liter being a multiple of 5,6,critical,html-keyboard-response,11,72620,0.0-4.0-0.2,anon_subject_11,6733d46d557efbcaf35e42fb,67351be4953358323111a0b8,0.6666653023528891,not_total_nonsense,False
1935,"<div style=""font-size:20px;""><p>A man feeling regretful</p></div>",1,regret,0,concrete_animate,target,a man,a man feeling regretful,6,critical,html-keyboard-response,13,75565,0.0-4.0-0.3,anon_subject_11,6733d46d557efbcaf35e42fb,67351be4953358323111a0b8,0.6666653023528891,not_total_nonsense,False
1727,"<div style=""font-size:20px;""><p>A girl writing a play</p></div>",1,write_play,2,concrete_animate,target,a girl,a girl writing a play,6,critical,html-keyboard-response,15,78299,0.0-4.0-0.4,anon_subject_11,6733d46d557efbcaf35e42fb,67351be4953358323111a0b8,0.6666653023528891,not_total_nonsense,False
2268,"<div style=""font-size:20px;""><p>A teenager being surprised by a news article</p></div>",1,surprised,4,concrete_animate,target,a teenager,a teenager being surprised by a news article,6,critical,html-keyboard-response,17,81571,0.0-4.0-0.5,anon_subject_11,6733d46d557efbcaf35e42fb,67351be4953358323111a0b8,0.6666653023528891,not_total_nonsense,False
3105,"<div style=""font-size:20px;""><p>Taking the square root of a month</p></div>",0,square_root,9,abstract_numeral,near,a month,taking the square root of a month,6,critical,html-keyboard-response,19,85680,0.0-4.0-0.6,anon_subject_11,6733d46d557efbcaf35e42fb,67351be4953358323111a0b8,0.6666653023528891,total_nonsense,True
3706,"<div style=""font-size:20px;""><p>Dividing 12 by a mile</p></div>",0,dividing,10,abstract_numeral,near,a mile,dividing 12 by a mile,6,critical,html-keyboard-response,21,90393,0.0-4.0-0.7,anon_subject_11,6733d46d557efbcaf35e42fb,67351be4953358323111a0b8,0.6666653023528891,total_nonsense,True
7269,"<div style=""font-size:20px;""><p>The number 16 being amused by a TV show</p></div>",0,amused,3,concrete_animate,far1,the number 16,the number 16 being amused by a TV show,6,critical,html-keyboard-response,23,98667,0.0-4.0-0.8,anon_subject_11,6733d46d557efbcaf35e42fb,67351be4953358323111a0b8,0.6666653023528891,total_nonsense,True
3310,"<div style=""font-size:20px;""><p>A crumb being greater than 10</p></div>",0,greater_than,7,abstract_numeral,far2,a crumb,a crumb being greater than 10,6,critical,html-keyboard-response,25,102979,0.0-4.0-0.9,anon_subject_11,6733d46d557efbcaf35e42fb,67351be4953358323111a0b8,0.6666653023528891,total_nonsense,True
1420,"<div style=""font-size:20px;""><p>A rock being a prime number</p></div>",0,is_prime,8,abstract_numeral,far2,a rock,a rock being a prime number,6,critical,html-keyboard-response,27,105404,0.0-4.0-0.10,anon_subject_11,6733d46d557efbcaf35e42fb,67351be4953358323111a0b8,0.6666653023528891,total_nonsense,True
2414,"<div style=""font-size:20px;""><p>Adding a boy to 79</p></div>",0,adding,11,abstract_numeral,far1,a boy,adding a boy to 79,6,critical,html-keyboard-response,29,108820,0.0-4.0-0.11,anon_subject_11,6733d46d557efbcaf35e42fb,67351be4953358323111a0b8,0.6666653023528891,total_nonsense,True
5217,"<div style=""font-size:20px;""><p>A door feeling regretful</p></div>",0,regret,0,concrete_animate,near,a door,a door feeling regretful,9,critical,html-keyboard-response,15,100511,0.0-4.0-0.0,anon_subject_32,6733d46d557efbcaf35e42fb,67351096e57b0c1fa6b0971f,0.9870172403204864,total_nonsense,True
3699,"<div style=""font-size:20px;""><p>The number 10 being a multiple of 5</p></div>",1,multiple,6,abstract_numeral,target,the number 10,the number 10 being a multiple of 5,9,critical,html-keyboard-response,17,105218,0.0-4.0-0.1,anon_subject_32,6733d46d557efbcaf35e42fb,67351096e57b0c1fa6b0971f,0.9870172403204864,not_total_nonsense,False
1844,"<div style=""font-size:20px;""><p>A shirt being surprised by a news article</p></div>",0,surprised,4,concrete_animate,near,a shirt,a shirt being surprised by a news article,9,critical,html-keyboard-response,19,108068,0.0-4.0-0.2,anon_subject_32,6733d46d557efbcaf35e42fb,67351096e57b0c1fa6b0971f,0.9870172403204864,total_nonsense,True
2419,"<div style=""font-size:20px;""><p>A woman being greater than 10</p></div>",0,greater_than,7,abstract_numeral,far1,a woman,a woman being greater than 10,9,critical,html-keyboard-response,21,111494,0.0-4.0-0.3,anon_subject_32,6733d46d557efbcaf35e42fb,67351096e57b0c1fa6b0971f,0.9870172403204864,total_nonsense,True
1302,"<div style=""font-size:20px;""><p>Dividing 12 by the number 4</p></div>",1,dividing,10,abstract_numeral,target,the number 4,dividing 12 by the number 4,9,critical,html-keyboard-response,23,113801,0.0-4.0-0.4,anon_subject_32,6733d46d557efbcaf35e42fb,67351096e57b0c1fa6b0971f,0.9870172403204864,not_total_nonsense,False
2478,"<div style=""font-size:20px;""><p>A wall being entertained by a podcast</p></div>",1,entertained,5,concrete_animate,near,a wall,a wall being entertained by a podcast,9,critical,html-keyboard-response,25,117284,0.0-4.0-0.5,anon_subject_32,6733d46d557efbcaf35e42fb,67351096e57b0c1fa6b0971f,0.9870172403204864,not_total_nonsense,False
2468,"<div style=""font-size:20px;""><p>A kilogram writing a play</p></div>",0,write_play,2,concrete_animate,far2,a kilogram,a kilogram writing a play,9,critical,html-keyboard-response,27,120761,0.0-4.0-0.6,anon_subject_32,6733d46d557efbcaf35e42fb,67351096e57b0c1fa6b0971f,0.9870172403204864,total_nonsense,True
1891,"<div style=""font-size:20px;""><p>A rock being a prime number</p></div>",1,is_prime,8,abstract_numeral,far2,a rock,a rock being a prime number,9,critical,html-keyboard-response,29,123657,0.0-4.0-0.7,anon_subject_32,6733d46d557efbcaf35e42fb,67351096e57b0c1fa6b0971f,0.9870172403204864,not_total_nonsense,False
2573,"<div style=""font-size:20px;""><p>Adding the number 20 to 79</p></div>",1,adding,11,abstract_numeral,target,the number 20,adding the number 20 to 79,9,critical,html-keyboard-response,31,127240,0.0-4.0-0.8,anon_subject_32,6733d46d557efbcaf35e42fb,67351096e57b0c1fa6b0971f,0.9870172403204864,not_total_nonsense,False
1966,"<div style=""font-size:20px;""><p>An inch applying for a job</p></div>",0,apply_job,1,concrete_animate,far2,an inch,an inch applying for a job,9,critical,html-keyboard-response,33,130214,0.0-4.0-0.9,anon_subject_32,6733d46d557efbcaf35e42fb,67351096e57b0c1fa6b0971f,0.9870172403204864,total_nonsense,True
2852,"<div style=""font-size:20px;""><p>The number 16 being amused by a TV show</p></div>",0,amused,3,concrete_animate,far1,the number 16,the number 16 being amused by a TV show,9,critical,html-keyboard-response,35,134070,0.0-4.0-0.10,anon_subject_32,6733d46d557efbcaf35e42fb,67351096e57b0c1fa6b0971f,0.9870172403204864,total_nonsense,True
2895,"<div style=""font-size:20px;""><p>Taking the square root of a toddler</p></div>",0,square_root,9,abstract_numeral,far1,a toddler,taking the square root of a toddler,9,critical,html-keyboard-response,37,137972,0.0-4.0-0.11,anon_subject_32,6733d46d557efbcaf35e42fb,67351096e57b0c1fa6b0971f,0.9870172403204864,total_nonsense,True
4819,"<div style=""font-size:20px;""><p>A rock writing a play</p></div>",0,write_play,2,concrete_animate,near,a rock,a rock writing a play,1,critical,html-keyboard-response,7,40539,0.0-4.0-0.0,anon_subject_18,6733d46d557efbcaf35e42fb,6735131c784eb236f6aaba47,0.06094047727385399,total_nonsense,True
5517,"<div style=""font-size:20px;""><p>Dividing 12 by a teenager</p></div>",0,dividing,10,abstract_numeral,far1,a teenager,dividing 12 by a teenager,1,critical,html-keyboard-response,9,47071,0.0-4.0-0.1,anon_subject_18,6733d46d557efbcaf35e42fb,6735131c784eb236f6aaba47,0.06094047727385399,total_nonsense,True
1954,"<div style=""font-size:20px;""><p>A door being a multiple of 5</p></div>",0,multiple,6,abstract_numeral,far2,a door,a door being a multiple of 5,1,critical,html-keyboard-response,11,50040,0.0-4.0-0.2,anon_subject_18,6733d46d557efbcaf35e42fb,6735131c784eb236f6aaba47,0.06094047727385399,total_nonsense,True
1612,"<div style=""font-size:20px;""><p>A boy being entertained by a podcast</p></div>",1,entertained,5,concrete_animate,target,a boy,a boy being entertained by a podcast,1,critical,html-keyboard-response,13,52661,0.0-4.0-0.3,anon_subject_18,6733d46d557efbcaf35e42fb,6735131c784eb236f6aaba47,0.06094047727385399,not_total_nonsense,False
3074,"<div style=""font-size:20px;""><p>A woman being greater than 10</p></div>",0,greater_than,7,abstract_numeral,far1,a woman,a woman being greater than 10,1,critical,html-keyboard-response,15,56738,0.0-4.0-0.4,anon_subject_18,6733d46d557efbcaf35e42fb,6735131c784eb236f6aaba47,0.06094047727385399,total_nonsense,True
1089,"<div style=""font-size:20px;""><p>A toddler being amused by a TV show</p></div>",1,amused,3,concrete_animate,target,a toddler,a toddler being amused by a TV show,1,critical,html-keyboard-response,17,58843,0.0-4.0-0.5,anon_subject_18,6733d46d557efbcaf35e42fb,6735131c784eb236f6aaba47,0.06094047727385399,not_total_nonsense,False
1150,"<div style=""font-size:20px;""><p>An inch applying for a job</p></div>",0,apply_job,1,concrete_animate,far2,an inch,an inch applying for a job,1,critical,html-keyboard-response,19,60997,0.0-4.0-0.6,anon_subject_18,6733d46d557efbcaf35e42fb,6735131c784eb236f6aaba47,0.06094047727385399,total_nonsense,True
1382,"<div style=""font-size:20px;""><p>The number 4 being surprised by a news article</p></div>",0,surprised,4,concrete_animate,far1,the number 4,the number 4 being surprised by a news article,1,critical,html-keyboard-response,21,63387,0.0-4.0-0.7,anon_subject_18,6733d46d557efbcaf35e42fb,6735131c784eb236f6aaba47,0.06094047727385399,total_nonsense,True
2659,"<div style=""font-size:20px;""><p>Taking the square root of a month</p></div>",0,square_root,9,abstract_numeral,near,a month,taking the square root of a month,1,critical,html-keyboard-response,23,67053,0.0-4.0-0.8,anon_subject_18,6733d46d557efbcaf35e42fb,6735131c784eb236f6aaba47,0.06094047727385399,total_nonsense,True
1637,"<div style=""font-size:20px;""><p>The number 13 being a prime number</p></div>",1,is_prime,8,abstract_numeral,target,the number 13,the number 13 being a prime number,1,critical,html-keyboard-response,25,69701,0.0-4.0-0.9,anon_subject_18,6733d46d557efbcaf35e42fb,6735131c784eb236f6aaba47,0.06094047727385399,not_total_nonsense,False
3790,"<div style=""font-size:20px;""><p>Adding a week to 79</p></div>",1,adding,11,abstract_numeral,near,a week,adding a week to 79,1,critical,html-keyboard-response,27,74505,0.0-4.0-0.10,anon_subject_18,6733d46d557efbcaf35e42fb,6735131c784eb236f6aaba47,0.06094047727385399,not_total_nonsense,False
1333,"<div style=""font-size:20px;""><p>A liter feeling regretful</p></div>",0,regret,0,concrete_animate,far2,a liter,a liter feeling regretful,1,critical,html-keyboard-response,29,76852,0.0-4.0-0.11,anon_subject_18,6733d46d557efbcaf35e42fb,6735131c784eb236f6aaba47,0.06094047727385399,total_nonsense,True
8030,"<div style=""font-size:20px;""><p>A woman being greater than 10</p></div>",1,greater_than,7,abstract_numeral,far1,a woman,a woman being greater than 10,1,critical,html-keyboard-response,7,152445,0.0-4.0-0.0,anon_subject_6,6733d46d557efbcaf35e42fb,67351bef4cdd30b8b2b33e09,0.8481693682438476,not_total_nonsense,False
2770,"<div style=""font-size:20px;""><p>A liter feeling regretful</p></div>",1,regret,0,concrete_animate,far2,a liter,a liter feeling regretful,1,critical,html-keyboard-response,9,156218,0.0-4.0-0.1,anon_subject_6,6733d46d557efbcaf35e42fb,67351bef4cdd30b8b2b33e09,0.8481693682438476,not_total_nonsense,False
3211,"<div style=""font-size:20px;""><p>A toddler being amused by a TV show</p></div>",1,amused,3,concrete_animate,target,a toddler,a toddler being amused by a TV show,1,critical,html-keyboard-response,11,160431,0.0-4.0-0.2,anon_subject_6,6733d46d557efbcaf35e42fb,67351bef4cdd30b8b2b33e09,0.8481693682438476,not_total_nonsense,False
5249,"<div style=""font-size:20px;""><p>Dividing 12 by a teenager</p></div>",0,dividing,10,abstract_numeral,far1,a teenager,dividing 12 by a teenager,1,critical,html-keyboard-response,13,166682,0.0-4.0-0.3,anon_subject_6,6733d46d557efbcaf35e42fb,67351bef4cdd30b8b2b33e09,0.8481693682438476,total_nonsense,True
3662,"<div style=""font-size:20px;""><p>A rock writing a play</p></div>",0,write_play,2,concrete_animate,near,a rock,a rock writing a play,1,critical,html-keyboard-response,15,171349,0.0-4.0-0.4,anon_subject_6,6733d46d557efbcaf35e42fb,67351bef4cdd30b8b2b33e09,0.8481693682438476,total_nonsense,True
9909,"<div style=""font-size:20px;""><p>The number 13 being a prime number</p></div>",1,is_prime,8,abstract_numeral,target,the number 13,the number 13 being a prime number,1,critical,html-keyboard-response,17,182263,0.0-4.0-0.5,anon_subject_6,6733d46d557efbcaf35e42fb,67351bef4cdd30b8b2b33e09,0.8481693682438476,not_total_nonsense,False
10925,"<div style=""font-size:20px;""><p>Adding a week to 79</p></div>",1,adding,11,abstract_numeral,near,a week,adding a week to 79,1,critical,html-keyboard-response,19,194191,0.0-4.0-0.6,anon_subject_6,6733d46d557efbcaf35e42fb,67351bef4cdd30b8b2b33e09,0.8481693682438476,not_total_nonsense,False
2582,"<div style=""font-size:20px;""><p>A boy being entertained by a podcast</p></div>",1,entertained,5,concrete_animate,target,a boy,a boy being entertained by a podcast,1,critical,html-keyboard-response,21,197777,0.0-4.0-0.7,anon_subject_6,6733d46d557efbcaf35e42fb,67351bef4cdd30b8b2b33e09,0.8481693682438476,not_total_nonsense,False
5317,"<div style=""font-size:20px;""><p>An inch applying for a job</p></div>",0,apply_job,1,concrete_animate,far2,an inch,an inch applying for a job,1,critical,html-keyboard-response,23,204098,0.0-4.0-0.8,anon_subject_6,6733d46d557efbcaf35e42fb,67351bef4cdd30b8b2b33e09,0.8481693682438476,total_nonsense,True
3376,"<div style=""font-size:20px;""><p>A door being a multiple of 5</p></div>",0,multiple,6,abstract_numeral,far2,a door,a door being a multiple of 5,1,critical,html-keyboard-response,25,208479,0.0-4.0-0.9,anon_subject_6,6733d46d557efbcaf35e42fb,67351bef4cdd30b8b2b33e09,0.8481693682438476,total_nonsense,True
3564,"<div style=""font-size:20px;""><p>The number 4 being surprised by a news article</p></div>",0,surprised,4,concrete_animate,far1,the number 4,the number 4 being surprised by a news article,1,critical,html-keyboard-response,27,213047,0.0-4.0-0.10,anon_subject_6,6733d46d557efbcaf35e42fb,67351bef4cdd30b8b2b33e09,0.8481693682438476,total_nonsense,True
9710,"<div style=""font-size:20px;""><p>Taking the square root of a month</p></div>",0,square_root,9,abstract_numeral,near,a month,taking the square root of a month,1,critical,html-keyboard-response,29,223760,0.0-4.0-0.11,anon_subject_6,6733d46d557efbcaf35e42fb,67351bef4cdd30b8b2b33e09,0.8481693682438476,total_nonsense,True
3824,"<div style=""font-size:20px;""><p>A pill being amused by a TV show</p></div>",0,amused,3,concrete_animate,near,a pill,a pill being amused by a TV show,13,critical,html-keyboard-response,7,65038,0.0-4.0-0.0,anon_subject_25,6733d46d557efbcaf35e42fb,6735130f02f6f46a044d4334,0.5518752011278496,total_nonsense,True
3417,"<div style=""font-size:20px;""><p>The number 4 being surprised by a news article</p></div>",0,surprised,4,concrete_animate,far1,the number 4,the number 4 being surprised by a news article,13,critical,html-keyboard-response,9,69461,0.0-4.0-0.1,anon_subject_25,6733d46d557efbcaf35e42fb,6735130f02f6f46a044d4334,0.5518752011278496,total_nonsense,True
5547,"<div style=""font-size:20px;""><p>A crumb being greater than 10</p></div>",0,greater_than,7,abstract_numeral,far2,a crumb,a crumb being greater than 10,13,critical,html-keyboard-response,11,76020,0.0-4.0-0.2,anon_subject_25,6733d46d557efbcaf35e42fb,6735130f02f6f46a044d4334,0.5518752011278496,total_nonsense,True
3907,"<div style=""font-size:20px;""><p>The number 20 being entertained by a podcast</p></div>",1,entertained,5,concrete_animate,far1,the number 20,the number 20 being entertained by a podcast,13,critical,html-keyboard-response,13,80940,0.0-4.0-0.3,anon_subject_25,6733d46d557efbcaf35e42fb,6735130f02f6f46a044d4334,0.5518752011278496,not_total_nonsense,False
2875,"<div style=""font-size:20px;""><p>A rock writing a play</p></div>",0,write_play,2,concrete_animate,near,a rock,a rock writing a play,13,critical,html-keyboard-response,15,84831,0.0-4.0-0.4,anon_subject_25,6733d46d557efbcaf35e42fb,6735130f02f6f46a044d4334,0.5518752011278496,total_nonsense,True
2341,"<div style=""font-size:20px;""><p>A door feeling regretful</p></div>",0,regret,0,concrete_animate,near,a door,a door feeling regretful,13,critical,html-keyboard-response,17,88187,0.0-4.0-0.5,anon_subject_25,6733d46d557efbcaf35e42fb,6735130f02f6f46a044d4334,0.5518752011278496,total_nonsense,True
1129,"<div style=""font-size:20px;""><p>A woman applying for a job</p></div>",1,apply_job,1,concrete_animate,target,a woman,a woman applying for a job,13,critical,html-keyboard-response,19,90326,0.0-4.0-0.6,anon_subject_25,6733d46d557efbcaf35e42fb,6735130f02f6f46a044d4334,0.5518752011278496,not_total_nonsense,False
2451,"<div style=""font-size:20px;""><p>Dividing 12 by a shirt</p></div>",0,dividing,10,abstract_numeral,far2,a shirt,dividing 12 by a shirt,13,critical,html-keyboard-response,21,93781,0.0-4.0-0.7,anon_subject_25,6733d46d557efbcaf35e42fb,6735130f02f6f46a044d4334,0.5518752011278496,total_nonsense,True
2438,"<div style=""font-size:20px;""><p>Adding a wall to 79</p></div>",0,adding,11,abstract_numeral,far2,a wall,adding a wall to 79,13,critical,html-keyboard-response,23,97235,0.0-4.0-0.8,anon_subject_25,6733d46d557efbcaf35e42fb,6735130f02f6f46a044d4334,0.5518752011278496,total_nonsense,True
4427,"<div style=""font-size:20px;""><p>Taking the square root of a toddler</p></div>",0,square_root,9,abstract_numeral,far1,a toddler,taking the square root of a toddler,13,critical,html-keyboard-response,25,102663,0.0-4.0-0.9,anon_subject_25,6733d46d557efbcaf35e42fb,6735130f02f6f46a044d4334,0.5518752011278496,total_nonsense,True
15228,"<div style=""font-size:20px;""><p>The number 13 being a prime number</p></div>",1,is_prime,8,abstract_numeral,target,the number 13,the number 13 being a prime number,13,critical,html-keyboard-response,27,118896,0.0-4.0-0.10,anon_subject_25,6733d46d557efbcaf35e42fb,6735130f02f6f46a044d4334,0.5518752011278496,not_total_nonsense,False
2217,"<div style=""font-size:20px;""><p>The number 10 being a multiple of 5</p></div>",1,multiple,6,abstract_numeral,target,the number 10,the number 10 being a multiple of 5,13,critical,html-keyboard-response,29,122118,0.0-4.0-0.11,anon_subject_25,6733d46d557efbcaf35e42fb,6735130f02f6f46a044d4334,0.5518752011278496,not_total_nonsense,False
2935,"<div style=""font-size:20px;""><p>A girl writing a play</p></div>",1,write_play,2,concrete_animate,target,a girl,a girl writing a play,6,critical,html-keyboard-response,7,62229,0.0-4.0-0.0,anon_subject_24,6733d46d557efbcaf35e42fb,6735110db7b3044b142f7790,0.46700895890855865,not_total_nonsense,False
5145,"<div style=""font-size:20px;""><p>A week being entertained by a podcast</p></div>",1,entertained,5,concrete_animate,far2,a week,a week being entertained by a podcast,6,critical,html-keyboard-response,9,68381,0.0-4.0-0.1,anon_subject_24,6733d46d557efbcaf35e42fb,6735110db7b3044b142f7790,0.46700895890855865,not_total_nonsense,False
1574,"<div style=""font-size:20px;""><p>Adding a boy to 79</p></div>",0,adding,11,abstract_numeral,far1,a boy,adding a boy to 79,6,critical,html-keyboard-response,11,70965,0.0-4.0-0.2,anon_subject_24,6733d46d557efbcaf35e42fb,6735110db7b3044b142f7790,0.46700895890855865,total_nonsense,True
4906,"<div style=""font-size:20px;""><p>The number 16 being amused by a TV show</p></div>",0,amused,3,concrete_animate,far1,the number 16,the number 16 being amused by a TV show,6,critical,html-keyboard-response,13,76877,0.0-4.0-0.3,anon_subject_24,6733d46d557efbcaf35e42fb,6735110db7b3044b142f7790,0.46700895890855865,total_nonsense,True
2370,"<div style=""font-size:20px;""><p>A liter being a multiple of 5</p></div>",1,multiple,6,abstract_numeral,near,a liter,a liter being a multiple of 5,6,critical,html-keyboard-response,15,80261,0.0-4.0-0.4,anon_subject_24,6733d46d557efbcaf35e42fb,6735110db7b3044b142f7790,0.46700895890855865,not_total_nonsense,False
3576,"<div style=""font-size:20px;""><p>Dividing 12 by a mile</p></div>",0,dividing,10,abstract_numeral,near,a mile,dividing 12 by a mile,6,critical,html-keyboard-response,17,84845,0.0-4.0-0.5,anon_subject_24,6733d46d557efbcaf35e42fb,6735110db7b3044b142f7790,0.46700895890855865,total_nonsense,True
1475,"<div style=""font-size:20px;""><p>A man feeling regretful</p></div>",1,regret,0,concrete_animate,target,a man,a man feeling regretful,6,critical,html-keyboard-response,19,87333,0.0-4.0-0.6,anon_subject_24,6733d46d557efbcaf35e42fb,6735110db7b3044b142f7790,0.46700895890855865,not_total_nonsense,False
1464,"<div style=""font-size:20px;""><p>A rock being a prime number</p></div>",0,is_prime,8,abstract_numeral,far2,a rock,a rock being a prime number,6,critical,html-keyboard-response,21,89813,0.0-4.0-0.7,anon_subject_24,6733d46d557efbcaf35e42fb,6735110db7b3044b142f7790,0.46700895890855865,total_nonsense,True
2086,"<div style=""font-size:20px;""><p>The number 12 applying for a job</p></div>",1,apply_job,1,concrete_animate,far1,the number 12,the number 12 applying for a job,6,critical,html-keyboard-response,23,92909,0.0-4.0-0.8,anon_subject_24,6733d46d557efbcaf35e42fb,6735110db7b3044b142f7790,0.46700895890855865,not_total_nonsense,False
4874,"<div style=""font-size:20px;""><p>Taking the square root of a month</p></div>",0,square_root,9,abstract_numeral,near,a month,taking the square root of a month,6,critical,html-keyboard-response,25,98797,0.0-4.0-0.9,anon_subject_24,6733d46d557efbcaf35e42fb,6735110db7b3044b142f7790,0.46700895890855865,total_nonsense,True
1842,"<div style=""font-size:20px;""><p>A teenager being surprised by a news article</p></div>",1,surprised,4,concrete_animate,target,a teenager,a teenager being surprised by a news article,6,critical,html-keyboard-response,27,101653,0.0-4.0-0.10,anon_subject_24,6733d46d557efbcaf35e42fb,6735110db7b3044b142f7790,0.46700895890855865,not_total_nonsense,False
2739,"<div style=""font-size:20px;""><p>A crumb being greater than 10</p></div>",0,greater_than,7,abstract_numeral,far2,a crumb,a crumb being greater than 10,6,critical,html-keyboard-response,29,105397,0.0-4.0-0.11,anon_subject_24,6733d46d557efbcaf35e42fb,6735110db7b3044b142f7790,0.46700895890855865,total_nonsense,True
9573,"<div style=""font-size:20px;""><p>The number 13 writing a play</p></div>",0,write_play,2,concrete_animate,far1,the number 13,the number 13 writing a play,10,critical,html-keyboard-response,7,187860,0.0-4.0-0.0,anon_subject_26,6733d46d557efbcaf35e42fb,67351074c9ec643dc777dc51,0.5052284789706533,total_nonsense,True
8958,"<div style=""font-size:20px;""><p>The number 12 being greater than 10</p></div>",0,greater_than,7,abstract_numeral,target,the number 12,the number 12 being greater than 10,10,critical,html-keyboard-response,9,197821,0.0-4.0-0.1,anon_subject_26,6733d46d557efbcaf35e42fb,67351074c9ec643dc777dc51,0.5052284789706533,total_nonsense,True
3990,"<div style=""font-size:20px;""><p>A rock being a prime number</p></div>",0,is_prime,8,abstract_numeral,far2,a rock,a rock being a prime number,10,critical,html-keyboard-response,11,202812,0.0-4.0-0.2,anon_subject_26,6733d46d557efbcaf35e42fb,67351074c9ec643dc777dc51,0.5052284789706533,total_nonsense,True
14245,"<div style=""font-size:20px;""><p>Taking the square root of a pill</p></div>",1,square_root,9,abstract_numeral,far2,a pill,taking the square root of a pill,10,critical,html-keyboard-response,13,218061,0.0-4.0-0.3,anon_subject_26,6733d46d557efbcaf35e42fb,67351074c9ec643dc777dc51,0.5052284789706533,not_total_nonsense,False
6581,"<div style=""font-size:20px;""><p>The number 20 being entertained by a podcast</p></div>",1,entertained,5,concrete_animate,far1,the number 20,the number 20 being entertained by a podcast,10,critical,html-keyboard-response,15,225644,0.0-4.0-0.4,anon_subject_26,6733d46d557efbcaf35e42fb,67351074c9ec643dc777dc51,0.5052284789706533,not_total_nonsense,False
4126,"<div style=""font-size:20px;""><p>A teenager being surprised by a news article</p></div>",1,surprised,4,concrete_animate,target,a teenager,a teenager being surprised by a news article,10,critical,html-keyboard-response,17,230773,0.0-4.0-0.5,anon_subject_26,6733d46d557efbcaf35e42fb,67351074c9ec643dc777dc51,0.5052284789706533,not_total_nonsense,False
2742,"<div style=""font-size:20px;""><p>A toddler being amused by a TV show</p></div>",1,amused,3,concrete_animate,target,a toddler,a toddler being amused by a TV show,10,critical,html-keyboard-response,19,234516,0.0-4.0-0.6,anon_subject_26,6733d46d557efbcaf35e42fb,67351074c9ec643dc777dc51,0.5052284789706533,not_total_nonsense,False
4141,"<div style=""font-size:20px;""><p>A liter being a multiple of 5</p></div>",1,multiple,6,abstract_numeral,near,a liter,a liter being a multiple of 5,10,critical,html-keyboard-response,21,239660,0.0-4.0-0.7,anon_subject_26,6733d46d557efbcaf35e42fb,67351074c9ec643dc777dc51,0.5052284789706533,not_total_nonsense,False
3999,"<div style=""font-size:20px;""><p>Adding a week to 79</p></div>",1,adding,11,abstract_numeral,near,a week,adding a week to 79,10,critical,html-keyboard-response,23,244660,0.0-4.0-0.8,anon_subject_26,6733d46d557efbcaf35e42fb,67351074c9ec643dc777dc51,0.5052284789706533,not_total_nonsense,False
3222,"<div style=""font-size:20px;""><p>Dividing 12 by a shirt</p></div>",0,dividing,10,abstract_numeral,far2,a shirt,dividing 12 by a shirt,10,critical,html-keyboard-response,25,248884,0.0-4.0-0.9,anon_subject_26,6733d46d557efbcaf35e42fb,67351074c9ec643dc777dc51,0.5052284789706533,total_nonsense,True
4734,"<div style=""font-size:20px;""><p>A crumb applying for a job</p></div>",1,apply_job,1,concrete_animate,near,a crumb,a crumb applying for a job,10,critical,html-keyboard-response,27,254620,0.0-4.0-0.10,anon_subject_26,6733d46d557efbcaf35e42fb,67351074c9ec643dc777dc51,0.5052284789706533,not_total_nonsense,False
13278,"<div style=""font-size:20px;""><p>The number 10 feeling regretful</p></div>",1,regret,0,concrete_animate,far1,the number 10,the number 10 feeling regretful,10,critical,html-keyboard-response,29,268900,0.0-4.0-0.11,anon_subject_26,6733d46d557efbcaf35e42fb,67351074c9ec643dc777dc51,0.5052284789706533,not_total_nonsense,False
5573,"<div style=""font-size:20px;""><p>A rock writing a play</p></div>",1,write_play,2,concrete_animate,near,a rock,a rock writing a play,13,critical,html-keyboard-response,7,168935,0.0-4.0-0.0,anon_subject_34,6733d46d557efbcaf35e42fb,673511369f40df9f86fb6f13,0.07576086244838187,not_total_nonsense,False
6398,"<div style=""font-size:20px;""><p>A crumb being greater than 10</p></div>",0,greater_than,7,abstract_numeral,far2,a crumb,a crumb being greater than 10,13,critical,html-keyboard-response,9,176335,0.0-4.0-0.1,anon_subject_34,6733d46d557efbcaf35e42fb,673511369f40df9f86fb6f13,0.07576086244838187,total_nonsense,True
5849,"<div style=""font-size:20px;""><p>The number 4 being surprised by a news article</p></div>",1,surprised,4,concrete_animate,far1,the number 4,the number 4 being surprised by a news article,13,critical,html-keyboard-response,11,183199,0.0-4.0-0.2,anon_subject_34,6733d46d557efbcaf35e42fb,673511369f40df9f86fb6f13,0.07576086244838187,not_total_nonsense,False
4288,"<div style=""font-size:20px;""><p>Adding a wall to 79</p></div>",0,adding,11,abstract_numeral,far2,a wall,adding a wall to 79,13,critical,html-keyboard-response,13,188500,0.0-4.0-0.3,anon_subject_34,6733d46d557efbcaf35e42fb,673511369f40df9f86fb6f13,0.07576086244838187,total_nonsense,True
3218,"<div style=""font-size:20px;""><p>The number 20 being entertained by a podcast</p></div>",1,entertained,5,concrete_animate,far1,the number 20,the number 20 being entertained by a podcast,13,critical,html-keyboard-response,15,192722,0.0-4.0-0.4,anon_subject_34,6733d46d557efbcaf35e42fb,673511369f40df9f86fb6f13,0.07576086244838187,not_total_nonsense,False
11142,"<div style=""font-size:20px;""><p>The number 13 being a prime number</p></div>",1,is_prime,8,abstract_numeral,target,the number 13,the number 13 being a prime number,13,critical,html-keyboard-response,17,204873,0.0-4.0-0.5,anon_subject_34,6733d46d557efbcaf35e42fb,673511369f40df9f86fb6f13,0.07576086244838187,not_total_nonsense,False
6406,"<div style=""font-size:20px;""><p>A door feeling regretful</p></div>",1,regret,0,concrete_animate,near,a door,a door feeling regretful,13,critical,html-keyboard-response,19,212282,0.0-4.0-0.6,anon_subject_34,6733d46d557efbcaf35e42fb,673511369f40df9f86fb6f13,0.07576086244838187,not_total_nonsense,False
3069,"<div style=""font-size:20px;""><p>A pill being amused by a TV show</p></div>",1,amused,3,concrete_animate,near,a pill,a pill being amused by a TV show,13,critical,html-keyboard-response,21,216357,0.0-4.0-0.7,anon_subject_34,6733d46d557efbcaf35e42fb,673511369f40df9f86fb6f13,0.07576086244838187,not_total_nonsense,False
2562,"<div style=""font-size:20px;""><p>The number 10 being a multiple of 5</p></div>",1,multiple,6,abstract_numeral,target,the number 10,the number 10 being a multiple of 5,13,critical,html-keyboard-response,23,219924,0.0-4.0-0.8,anon_subject_34,6733d46d557efbcaf35e42fb,673511369f40df9f86fb6f13,0.07576086244838187,not_total_nonsense,False
2986,"<div style=""font-size:20px;""><p>Taking the square root of a toddler</p></div>",0,square_root,9,abstract_numeral,far1,a toddler,taking the square root of a toddler,13,critical,html-keyboard-response,25,223925,0.0-4.0-0.9,anon_subject_34,6733d46d557efbcaf35e42fb,673511369f40df9f86fb6f13,0.07576086244838187,total_nonsense,True
6073,"<div style=""font-size:20px;""><p>Dividing 12 by a shirt</p></div>",0,dividing,10,abstract_numeral,far2,a shirt,dividing 12 by a shirt,13,critical,html-keyboard-response,27,231004,0.0-4.0-0.10,anon_subject_34,6733d46d557efbcaf35e42fb,673511369f40df9f86fb6f13,0.07576086244838187,total_nonsense,True
2239,"<div style=""font-size:20px;""><p>A woman applying for a job</p></div>",1,apply_job,1,concrete_animate,target,a woman,a woman applying for a job,13,critical,html-keyboard-response,29,234251,0.0-4.0-0.11,anon_subject_34,6733d46d557efbcaf35e42fb,673511369f40df9f86fb6f13,0.07576086244838187,not_total_nonsense,False
6171,"<div style=""font-size:20px;""><p>A girl writing a play</p></div>",1,write_play,2,concrete_animate,target,a girl,a girl writing a play,12,critical,html-keyboard-response,7,132439,0.0-4.0-0.0,anon_subject_38,6733d46d557efbcaf35e42fb,67351bdff9180448bae11300,0.3751086482019901,not_total_nonsense,False
3771,"<div style=""font-size:20px;""><p>A man being a multiple of 5</p></div>",0,multiple,6,abstract_numeral,far1,a man,a man being a multiple of 5,12,critical,html-keyboard-response,9,137230,0.0-4.0-0.1,anon_subject_38,6733d46d557efbcaf35e42fb,67351bdff9180448bae11300,0.3751086482019901,total_nonsense,True
3017,"<div style=""font-size:20px;""><p>An inch applying for a job</p></div>",0,apply_job,1,concrete_animate,far2,an inch,an inch applying for a job,12,critical,html-keyboard-response,11,141258,0.0-4.0-0.2,anon_subject_38,6733d46d557efbcaf35e42fb,67351bdff9180448bae11300,0.3751086482019901,total_nonsense,True
6570,"<div style=""font-size:20px;""><p>Adding a wall to 79</p></div>",0,adding,11,abstract_numeral,far2,a wall,adding a wall to 79,12,critical,html-keyboard-response,13,148838,0.0-4.0-0.3,anon_subject_38,6733d46d557efbcaf35e42fb,67351bdff9180448bae11300,0.3751086482019901,total_nonsense,True
6837,"<div style=""font-size:20px;""><p>A kilogram being a prime number</p></div>",0,is_prime,8,abstract_numeral,near,a kilogram,a kilogram being a prime number,12,critical,html-keyboard-response,15,156685,0.0-4.0-0.4,anon_subject_38,6733d46d557efbcaf35e42fb,67351bdff9180448bae11300,0.3751086482019901,total_nonsense,True
2726,"<div style=""font-size:20px;""><p>A toddler being amused by a TV show</p></div>",1,amused,3,concrete_animate,target,a toddler,a toddler being amused by a TV show,12,critical,html-keyboard-response,17,160427,0.0-4.0-0.5,anon_subject_38,6733d46d557efbcaf35e42fb,67351bdff9180448bae11300,0.3751086482019901,not_total_nonsense,False
7557,"<div style=""font-size:20px;""><p>A woman being greater than 10</p></div>",1,greater_than,7,abstract_numeral,far1,a woman,a woman being greater than 10,12,critical,html-keyboard-response,19,168999,0.0-4.0-0.6,anon_subject_38,6733d46d557efbcaf35e42fb,67351bdff9180448bae11300,0.3751086482019901,not_total_nonsense,False
2929,"<div style=""font-size:20px;""><p>A door feeling regretful</p></div>",1,regret,0,concrete_animate,near,a door,a door feeling regretful,12,critical,html-keyboard-response,21,172939,0.0-4.0-0.7,anon_subject_38,6733d46d557efbcaf35e42fb,67351bdff9180448bae11300,0.3751086482019901,not_total_nonsense,False
5443,"<div style=""font-size:20px;""><p>A mile being surprised by a news article</p></div>",0,surprised,4,concrete_animate,far2,a mile,a mile being surprised by a news article,12,critical,html-keyboard-response,23,179386,0.0-4.0-0.8,anon_subject_38,6733d46d557efbcaf35e42fb,67351bdff9180448bae11300,0.3751086482019901,total_nonsense,True
5758,"<div style=""font-size:20px;""><p>Taking the square root of a month</p></div>",0,square_root,9,abstract_numeral,near,a month,taking the square root of a month,12,critical,html-keyboard-response,25,186159,0.0-4.0-0.9,anon_subject_38,6733d46d557efbcaf35e42fb,67351bdff9180448bae11300,0.3751086482019901,total_nonsense,True
1929,"<div style=""font-size:20px;""><p>Dividing 12 by a teenager</p></div>",0,dividing,10,abstract_numeral,far1,a teenager,dividing 12 by a teenager,12,critical,html-keyboard-response,27,189097,0.0-4.0-0.10,anon_subject_38,6733d46d557efbcaf35e42fb,67351bdff9180448bae11300,0.3751086482019901,total_nonsense,True
3617,"<div style=""font-size:20px;""><p>A boy being entertained by a podcast</p></div>",1,entertained,5,concrete_animate,target,a boy,a boy being entertained by a podcast,12,critical,html-keyboard-response,29,193726,0.0-4.0-0.11,anon_subject_38,6733d46d557efbcaf35e42fb,67351bdff9180448bae11300,0.3751086482019901,not_total_nonsense,False
2129,"<div style=""font-size:20px;""><p>Adding a wall to 79</p></div>",0,adding,11,abstract_numeral,far2,a wall,adding a wall to 79,12,critical,html-keyboard-response,7,53500,0.0-4.0-0.0,anon_subject_20,6733d46d557efbcaf35e42fb,673514335a2e5ddbcb0ddc2e,0.2814625842433829,total_nonsense,True
1620,"<div style=""font-size:20px;""><p>A toddler being amused by a TV show</p></div>",1,amused,3,concrete_animate,target,a toddler,a toddler being amused by a TV show,12,critical,html-keyboard-response,9,56124,0.0-4.0-0.1,anon_subject_20,6733d46d557efbcaf35e42fb,673514335a2e5ddbcb0ddc2e,0.2814625842433829,not_total_nonsense,False
1906,"<div style=""font-size:20px;""><p>A woman being greater than 10</p></div>",0,greater_than,7,abstract_numeral,far1,a woman,a woman being greater than 10,12,critical,html-keyboard-response,11,59033,0.0-4.0-0.2,anon_subject_20,6733d46d557efbcaf35e42fb,673514335a2e5ddbcb0ddc2e,0.2814625842433829,total_nonsense,True
1201,"<div style=""font-size:20px;""><p>Dividing 12 by a teenager</p></div>",0,dividing,10,abstract_numeral,far1,a teenager,dividing 12 by a teenager,12,critical,html-keyboard-response,13,61237,0.0-4.0-0.3,anon_subject_20,6733d46d557efbcaf35e42fb,673514335a2e5ddbcb0ddc2e,0.2814625842433829,total_nonsense,True
2354,"<div style=""font-size:20px;""><p>A kilogram being a prime number</p></div>",1,is_prime,8,abstract_numeral,near,a kilogram,a kilogram being a prime number,12,critical,html-keyboard-response,15,64595,0.0-4.0-0.4,anon_subject_20,6733d46d557efbcaf35e42fb,673514335a2e5ddbcb0ddc2e,0.2814625842433829,not_total_nonsense,False
5695,"<div style=""font-size:20px;""><p>Taking the square root of a month</p></div>",0,square_root,9,abstract_numeral,near,a month,taking the square root of a month,12,critical,html-keyboard-response,17,71292,0.0-4.0-0.5,anon_subject_20,6733d46d557efbcaf35e42fb,673514335a2e5ddbcb0ddc2e,0.2814625842433829,total_nonsense,True
1701,"<div style=""font-size:20px;""><p>A mile being surprised by a news article</p></div>",0,surprised,4,concrete_animate,far2,a mile,a mile being surprised by a news article,12,critical,html-keyboard-response,19,73997,0.0-4.0-0.6,anon_subject_20,6733d46d557efbcaf35e42fb,673514335a2e5ddbcb0ddc2e,0.2814625842433829,total_nonsense,True
1587,"<div style=""font-size:20px;""><p>A door feeling regretful</p></div>",0,regret,0,concrete_animate,near,a door,a door feeling regretful,12,critical,html-keyboard-response,21,76586,0.0-4.0-0.7,anon_subject_20,6733d46d557efbcaf35e42fb,673514335a2e5ddbcb0ddc2e,0.2814625842433829,total_nonsense,True
1366,"<div style=""font-size:20px;""><p>An inch applying for a job</p></div>",0,apply_job,1,concrete_animate,far2,an inch,an inch applying for a job,12,critical,html-keyboard-response,23,78955,0.0-4.0-0.8,anon_subject_20,6733d46d557efbcaf35e42fb,673514335a2e5ddbcb0ddc2e,0.2814625842433829,total_nonsense,True
891,"<div style=""font-size:20px;""><p>A girl writing a play</p></div>",1,write_play,2,concrete_animate,target,a girl,a girl writing a play,12,critical,html-keyboard-response,25,80849,0.0-4.0-0.9,anon_subject_20,6733d46d557efbcaf35e42fb,673514335a2e5ddbcb0ddc2e,0.2814625842433829,not_total_nonsense,False
1658,"<div style=""font-size:20px;""><p>A man being a multiple of 5</p></div>",0,multiple,6,abstract_numeral,far1,a man,a man being a multiple of 5,12,critical,html-keyboard-response,27,83510,0.0-4.0-0.10,anon_subject_20,6733d46d557efbcaf35e42fb,673514335a2e5ddbcb0ddc2e,0.2814625842433829,total_nonsense,True
1222,"<div style=""font-size:20px;""><p>A boy being entertained by a podcast</p></div>",1,entertained,5,concrete_animate,target,a boy,a boy being entertained by a podcast,12,critical,html-keyboard-response,29,85734,0.0-4.0-0.11,anon_subject_20,6733d46d557efbcaf35e42fb,673514335a2e5ddbcb0ddc2e,0.2814625842433829,not_total_nonsense,False
4270,"<div style=""font-size:20px;""><p>A pill being amused by a TV show</p></div>",0,amused,3,concrete_animate,near,a pill,a pill being amused by a TV show,13,critical,html-keyboard-response,7,61352,0.0-4.0-0.0,anon_subject_21,6733d46d557efbcaf35e42fb,673513169986571e1673e4a8,0.8795482249445961,total_nonsense,True
4230,"<div style=""font-size:20px;""><p>The number 10 being a multiple of 5</p></div>",1,multiple,6,abstract_numeral,target,the number 10,the number 10 being a multiple of 5,13,critical,html-keyboard-response,9,66585,0.0-4.0-0.1,anon_subject_21,6733d46d557efbcaf35e42fb,673513169986571e1673e4a8,0.8795482249445961,not_total_nonsense,False
1816,"<div style=""font-size:20px;""><p>The number 4 being surprised by a news article</p></div>",0,surprised,4,concrete_animate,far1,the number 4,the number 4 being surprised by a news article,13,critical,html-keyboard-response,11,69410,0.0-4.0-0.2,anon_subject_21,6733d46d557efbcaf35e42fb,673513169986571e1673e4a8,0.8795482249445961,total_nonsense,True
5907,"<div style=""font-size:20px;""><p>A crumb being greater than 10</p></div>",1,greater_than,7,abstract_numeral,far2,a crumb,a crumb being greater than 10,13,critical,html-keyboard-response,13,76320,0.0-4.0-0.3,anon_subject_21,6733d46d557efbcaf35e42fb,673513169986571e1673e4a8,0.8795482249445961,not_total_nonsense,False
2002,"<div style=""font-size:20px;""><p>The number 20 being entertained by a podcast</p></div>",0,entertained,5,concrete_animate,far1,the number 20,the number 20 being entertained by a podcast,13,critical,html-keyboard-response,15,79324,0.0-4.0-0.4,anon_subject_21,6733d46d557efbcaf35e42fb,673513169986571e1673e4a8,0.8795482249445961,total_nonsense,True
5081,"<div style=""font-size:20px;""><p>A door feeling regretful</p></div>",0,regret,0,concrete_animate,near,a door,a door feeling regretful,13,critical,html-keyboard-response,17,85408,0.0-4.0-0.5,anon_subject_21,6733d46d557efbcaf35e42fb,673513169986571e1673e4a8,0.8795482249445961,total_nonsense,True
1477,"<div style=""font-size:20px;""><p>Adding a wall to 79</p></div>",0,adding,11,abstract_numeral,far2,a wall,adding a wall to 79,13,critical,html-keyboard-response,19,87889,0.0-4.0-0.6,anon_subject_21,6733d46d557efbcaf35e42fb,673513169986571e1673e4a8,0.8795482249445961,total_nonsense,True
1154,"<div style=""font-size:20px;""><p>A rock writing a play</p></div>",0,write_play,2,concrete_animate,near,a rock,a rock writing a play,13,critical,html-keyboard-response,21,90046,0.0-4.0-0.7,anon_subject_21,6733d46d557efbcaf35e42fb,673513169986571e1673e4a8,0.8795482249445961,total_nonsense,True
1027,"<div style=""font-size:20px;""><p>A woman applying for a job</p></div>",1,apply_job,1,concrete_animate,target,a woman,a woman applying for a job,13,critical,html-keyboard-response,23,92077,0.0-4.0-0.8,anon_subject_21,6733d46d557efbcaf35e42fb,673513169986571e1673e4a8,0.8795482249445961,not_total_nonsense,False
4801,"<div style=""font-size:20px;""><p>Taking the square root of a toddler</p></div>",0,square_root,9,abstract_numeral,far1,a toddler,taking the square root of a toddler,13,critical,html-keyboard-response,25,97881,0.0-4.0-0.9,anon_subject_21,6733d46d557efbcaf35e42fb,673513169986571e1673e4a8,0.8795482249445961,total_nonsense,True
2167,"<div style=""font-size:20px;""><p>The number 13 being a prime number</p></div>",1,is_prime,8,abstract_numeral,target,the number 13,the number 13 being a prime number,13,critical,html-keyboard-response,27,101053,0.0-4.0-0.10,anon_subject_21,6733d46d557efbcaf35e42fb,673513169986571e1673e4a8,0.8795482249445961,not_total_nonsense,False
1038,"<div style=""font-size:20px;""><p>Dividing 12 by a shirt</p></div>",0,dividing,10,abstract_numeral,far2,a shirt,dividing 12 by a shirt,13,critical,html-keyboard-response,29,103093,0.0-4.0-0.11,anon_subject_21,6733d46d557efbcaf35e42fb,673513169986571e1673e4a8,0.8795482249445961,total_nonsense,True
5881,"<div style=""font-size:20px;""><p>A pill being amused by a TV show</p></div>",0,amused,3,concrete_animate,near,a pill,a pill being amused by a TV show,13,critical,html-keyboard-response,7,111964,0.0-4.0-0.0,anon_subject_3,6733d46d557efbcaf35e42fb,67351474db8ec6c3d151e059,0.45267116387397155,total_nonsense,True
7532,"<div style=""font-size:20px;""><p>The number 10 being a multiple of 5</p></div>",1,multiple,6,abstract_numeral,target,the number 10,the number 10 being a multiple of 5,13,critical,html-keyboard-response,9,120501,0.0-4.0-0.1,anon_subject_3,6733d46d557efbcaf35e42fb,67351474db8ec6c3d151e059,0.45267116387397155,not_total_nonsense,False
7600,"<div style=""font-size:20px;""><p>The number 13 being a prime number</p></div>",0,is_prime,8,abstract_numeral,target,the number 13,the number 13 being a prime number,13,critical,html-keyboard-response,11,129103,0.0-4.0-0.2,anon_subject_3,6733d46d557efbcaf35e42fb,67351474db8ec6c3d151e059,0.45267116387397155,total_nonsense,True
4775,"<div style=""font-size:20px;""><p>A door feeling regretful</p></div>",0,regret,0,concrete_animate,near,a door,a door feeling regretful,13,critical,html-keyboard-response,13,134881,0.0-4.0-0.3,anon_subject_3,6733d46d557efbcaf35e42fb,67351474db8ec6c3d151e059,0.45267116387397155,total_nonsense,True
5189,"<div style=""font-size:20px;""><p>Taking the square root of a toddler</p></div>",0,square_root,9,abstract_numeral,far1,a toddler,taking the square root of a toddler,13,critical,html-keyboard-response,15,141072,0.0-4.0-0.4,anon_subject_3,6733d46d557efbcaf35e42fb,67351474db8ec6c3d151e059,0.45267116387397155,total_nonsense,True
4570,"<div style=""font-size:20px;""><p>Dividing 12 by a shirt</p></div>",0,dividing,10,abstract_numeral,far2,a shirt,dividing 12 by a shirt,13,critical,html-keyboard-response,17,146645,0.0-4.0-0.5,anon_subject_3,6733d46d557efbcaf35e42fb,67351474db8ec6c3d151e059,0.45267116387397155,total_nonsense,True
3987,"<div style=""font-size:20px;""><p>A woman applying for a job</p></div>",1,apply_job,1,concrete_animate,target,a woman,a woman applying for a job,13,critical,html-keyboard-response,19,151634,0.0-4.0-0.6,anon_subject_3,6733d46d557efbcaf35e42fb,67351474db8ec6c3d151e059,0.45267116387397155,not_total_nonsense,False
3543,"<div style=""font-size:20px;""><p>Adding a wall to 79</p></div>",0,adding,11,abstract_numeral,far2,a wall,adding a wall to 79,13,critical,html-keyboard-response,21,156179,0.0-4.0-0.7,anon_subject_3,6733d46d557efbcaf35e42fb,67351474db8ec6c3d151e059,0.45267116387397155,total_nonsense,True
8252,"<div style=""font-size:20px;""><p>A crumb being greater than 10</p></div>",0,greater_than,7,abstract_numeral,far2,a crumb,a crumb being greater than 10,13,critical,html-keyboard-response,23,165433,0.0-4.0-0.8,anon_subject_3,6733d46d557efbcaf35e42fb,67351474db8ec6c3d151e059,0.45267116387397155,total_nonsense,True
4177,"<div style=""font-size:20px;""><p>The number 20 being entertained by a podcast</p></div>",0,entertained,5,concrete_animate,far1,the number 20,the number 20 being entertained by a podcast,13,critical,html-keyboard-response,25,170614,0.0-4.0-0.9,anon_subject_3,6733d46d557efbcaf35e42fb,67351474db8ec6c3d151e059,0.45267116387397155,total_nonsense,True
2921,"<div style=""font-size:20px;""><p>The number 4 being surprised by a news article</p></div>",0,surprised,4,concrete_animate,far1,the number 4,the number 4 being surprised by a news article,13,critical,html-keyboard-response,27,174547,0.0-4.0-0.10,anon_subject_3,6733d46d557efbcaf35e42fb,67351474db8ec6c3d151e059,0.45267116387397155,total_nonsense,True
3720,"<div style=""font-size:20px;""><p>A rock writing a play</p></div>",0,write_play,2,concrete_animate,near,a rock,a rock writing a play,13,critical,html-keyboard-response,29,179269,0.0-4.0-0.11,anon_subject_3,6733d46d557efbcaf35e42fb,67351474db8ec6c3d151e059,0.45267116387397155,total_nonsense,True
7520,"<div style=""font-size:20px;""><p>A liter feeling regretful</p></div>",0,regret,0,concrete_animate,far2,a liter,a liter feeling regretful,1,critical,html-keyboard-response,7,84060,0.0-4.0-0.0,anon_subject_28,6733d46d557efbcaf35e42fb,673513af03d33f35ebeb1f3d,0.5509409619397376,total_nonsense,True
4454,"<div style=""font-size:20px;""><p>Adding a week to 79</p></div>",0,adding,11,abstract_numeral,near,a week,adding a week to 79,1,critical,html-keyboard-response,9,89529,0.0-4.0-0.1,anon_subject_28,6733d46d557efbcaf35e42fb,673513af03d33f35ebeb1f3d,0.5509409619397376,total_nonsense,True
3201,"<div style=""font-size:20px;""><p>An inch applying for a job</p></div>",0,apply_job,1,concrete_animate,far2,an inch,an inch applying for a job,1,critical,html-keyboard-response,11,93741,0.0-4.0-0.2,anon_subject_28,6733d46d557efbcaf35e42fb,673513af03d33f35ebeb1f3d,0.5509409619397376,total_nonsense,True
2250,"<div style=""font-size:20px;""><p>A toddler being amused by a TV show</p></div>",1,amused,3,concrete_animate,target,a toddler,a toddler being amused by a TV show,1,critical,html-keyboard-response,13,96998,0.0-4.0-0.3,anon_subject_28,6733d46d557efbcaf35e42fb,673513af03d33f35ebeb1f3d,0.5509409619397376,not_total_nonsense,False
3076,"<div style=""font-size:20px;""><p>The number 13 being a prime number</p></div>",1,is_prime,8,abstract_numeral,target,the number 13,the number 13 being a prime number,1,critical,html-keyboard-response,15,101090,0.0-4.0-0.4,anon_subject_28,6733d46d557efbcaf35e42fb,673513af03d33f35ebeb1f3d,0.5509409619397376,not_total_nonsense,False
3069,"<div style=""font-size:20px;""><p>A woman being greater than 10</p></div>",1,greater_than,7,abstract_numeral,far1,a woman,a woman being greater than 10,1,critical,html-keyboard-response,17,105169,0.0-4.0-0.5,anon_subject_28,6733d46d557efbcaf35e42fb,673513af03d33f35ebeb1f3d,0.5509409619397376,not_total_nonsense,False
5866,"<div style=""font-size:20px;""><p>Taking the square root of a month</p></div>",1,square_root,9,abstract_numeral,near,a month,taking the square root of a month,1,critical,html-keyboard-response,19,112049,0.0-4.0-0.6,anon_subject_28,6733d46d557efbcaf35e42fb,673513af03d33f35ebeb1f3d,0.5509409619397376,not_total_nonsense,False
1435,"<div style=""font-size:20px;""><p>A rock writing a play</p></div>",0,write_play,2,concrete_animate,near,a rock,a rock writing a play,1,critical,html-keyboard-response,21,114497,0.0-4.0-0.7,anon_subject_28,6733d46d557efbcaf35e42fb,673513af03d33f35ebeb1f3d,0.5509409619397376,total_nonsense,True
4897,"<div style=""font-size:20px;""><p>The number 4 being surprised by a news article</p></div>",0,surprised,4,concrete_animate,far1,the number 4,the number 4 being surprised by a news article,1,critical,html-keyboard-response,23,120391,0.0-4.0-0.8,anon_subject_28,6733d46d557efbcaf35e42fb,673513af03d33f35ebeb1f3d,0.5509409619397376,total_nonsense,True
3667,"<div style=""font-size:20px;""><p>A boy being entertained by a podcast</p></div>",1,entertained,5,concrete_animate,target,a boy,a boy being entertained by a podcast,1,critical,html-keyboard-response,25,125069,0.0-4.0-0.9,anon_subject_28,6733d46d557efbcaf35e42fb,673513af03d33f35ebeb1f3d,0.5509409619397376,not_total_nonsense,False
3076,"<div style=""font-size:20px;""><p>Dividing 12 by a teenager</p></div>",0,dividing,10,abstract_numeral,far1,a teenager,dividing 12 by a teenager,1,critical,html-keyboard-response,27,129158,0.0-4.0-0.10,anon_subject_28,6733d46d557efbcaf35e42fb,673513af03d33f35ebeb1f3d,0.5509409619397376,total_nonsense,True
4562,"<div style=""font-size:20px;""><p>A door being a multiple of 5</p></div>",0,multiple,6,abstract_numeral,far2,a door,a door being a multiple of 5,1,critical,html-keyboard-response,29,134724,0.0-4.0-0.11,anon_subject_28,6733d46d557efbcaf35e42fb,673513af03d33f35ebeb1f3d,0.5509409619397376,total_nonsense,True
5533,"<div style=""font-size:20px;""><p>The number 12 applying for a job</p></div>",0,apply_job,1,concrete_animate,far1,the number 12,the number 12 applying for a job,6,critical,html-keyboard-response,7,57208,0.0-4.0-0.0,anon_subject_4,6733d46d557efbcaf35e42fb,6735143523f4f1e954ec7cbf,0.7633736523942981,total_nonsense,True
1875,"<div style=""font-size:20px;""><p>A girl writing a play</p></div>",1,write_play,2,concrete_animate,target,a girl,a girl writing a play,6,critical,html-keyboard-response,9,60090,0.0-4.0-0.1,anon_subject_4,6733d46d557efbcaf35e42fb,6735143523f4f1e954ec7cbf,0.7633736523942981,not_total_nonsense,False
2308,"<div style=""font-size:20px;""><p>A teenager being surprised by a news article</p></div>",1,surprised,4,concrete_animate,target,a teenager,a teenager being surprised by a news article,6,critical,html-keyboard-response,11,63400,0.0-4.0-0.2,anon_subject_4,6733d46d557efbcaf35e42fb,6735143523f4f1e954ec7cbf,0.7633736523942981,not_total_nonsense,False
1965,"<div style=""font-size:20px;""><p>A crumb being greater than 10</p></div>",0,greater_than,7,abstract_numeral,far2,a crumb,a crumb being greater than 10,6,critical,html-keyboard-response,13,66373,0.0-4.0-0.3,anon_subject_4,6733d46d557efbcaf35e42fb,6735143523f4f1e954ec7cbf,0.7633736523942981,total_nonsense,True
2150,"<div style=""font-size:20px;""><p>Dividing 12 by a mile</p></div>",0,dividing,10,abstract_numeral,near,a mile,dividing 12 by a mile,6,critical,html-keyboard-response,15,69529,0.0-4.0-0.4,anon_subject_4,6733d46d557efbcaf35e42fb,6735143523f4f1e954ec7cbf,0.7633736523942981,total_nonsense,True
2678,"<div style=""font-size:20px;""><p>A rock being a prime number</p></div>",0,is_prime,8,abstract_numeral,far2,a rock,a rock being a prime number,6,critical,html-keyboard-response,17,73214,0.0-4.0-0.5,anon_subject_4,6733d46d557efbcaf35e42fb,6735143523f4f1e954ec7cbf,0.7633736523942981,total_nonsense,True
1780,"<div style=""font-size:20px;""><p>The number 16 being amused by a TV show</p></div>",0,amused,3,concrete_animate,far1,the number 16,the number 16 being amused by a TV show,6,critical,html-keyboard-response,19,76009,0.0-4.0-0.6,anon_subject_4,6733d46d557efbcaf35e42fb,6735143523f4f1e954ec7cbf,0.7633736523942981,total_nonsense,True
3471,"<div style=""font-size:20px;""><p>A liter being a multiple of 5</p></div>",1,multiple,6,abstract_numeral,near,a liter,a liter being a multiple of 5,6,critical,html-keyboard-response,21,80482,0.0-4.0-0.7,anon_subject_4,6733d46d557efbcaf35e42fb,6735143523f4f1e954ec7cbf,0.7633736523942981,not_total_nonsense,False
2811,"<div style=""font-size:20px;""><p>Adding a boy to 79</p></div>",0,adding,11,abstract_numeral,far1,a boy,adding a boy to 79,6,critical,html-keyboard-response,23,84310,0.0-4.0-0.8,anon_subject_4,6733d46d557efbcaf35e42fb,6735143523f4f1e954ec7cbf,0.7633736523942981,total_nonsense,True
1792,"<div style=""font-size:20px;""><p>A man feeling regretful</p></div>",1,regret,0,concrete_animate,target,a man,a man feeling regretful,6,critical,html-keyboard-response,25,87119,0.0-4.0-0.9,anon_subject_4,6733d46d557efbcaf35e42fb,6735143523f4f1e954ec7cbf,0.7633736523942981,not_total_nonsense,False
2531,"<div style=""font-size:20px;""><p>Taking the square root of a month</p></div>",0,square_root,9,abstract_numeral,near,a month,taking the square root of a month,6,critical,html-keyboard-response,27,90662,0.0-4.0-0.10,anon_subject_4,6733d46d557efbcaf35e42fb,6735143523f4f1e954ec7cbf,0.7633736523942981,total_nonsense,True
1591,"<div style=""font-size:20px;""><p>A week being entertained by a podcast</p></div>",0,entertained,5,concrete_animate,far2,a week,a week being entertained by a podcast,6,critical,html-keyboard-response,29,93265,0.0-4.0-0.11,anon_subject_4,6733d46d557efbcaf35e42fb,6735143523f4f1e954ec7cbf,0.7633736523942981,total_nonsense,True
3888,"<div style=""font-size:20px;""><p>Adding a wall to 79</p></div>",0,adding,11,abstract_numeral,far2,a wall,adding a wall to 79,12,critical,html-keyboard-response,11,93012,0.0-4.0-0.0,anon_subject_22,6733d46d557efbcaf35e42fb,67351bf0df744f43b8b81291,0.899735338448667,total_nonsense,True
5891,"<div style=""font-size:20px;""><p>Taking the square root of a month</p></div>",1,square_root,9,abstract_numeral,near,a month,taking the square root of a month,12,critical,html-keyboard-response,13,99908,0.0-4.0-0.1,anon_subject_22,6733d46d557efbcaf35e42fb,67351bf0df744f43b8b81291,0.899735338448667,not_total_nonsense,False
2326,"<div style=""font-size:20px;""><p>A woman being greater than 10</p></div>",1,greater_than,7,abstract_numeral,far1,a woman,a woman being greater than 10,12,critical,html-keyboard-response,15,103238,0.0-4.0-0.2,anon_subject_22,6733d46d557efbcaf35e42fb,67351bf0df744f43b8b81291,0.899735338448667,not_total_nonsense,False
1468,"<div style=""font-size:20px;""><p>A boy being entertained by a podcast</p></div>",1,entertained,5,concrete_animate,target,a boy,a boy being entertained by a podcast,12,critical,html-keyboard-response,17,105711,0.0-4.0-0.3,anon_subject_22,6733d46d557efbcaf35e42fb,67351bf0df744f43b8b81291,0.899735338448667,not_total_nonsense,False
2450,"<div style=""font-size:20px;""><p>A kilogram being a prime number</p></div>",1,is_prime,8,abstract_numeral,near,a kilogram,a kilogram being a prime number,12,critical,html-keyboard-response,19,109165,0.0-4.0-0.4,anon_subject_22,6733d46d557efbcaf35e42fb,67351bf0df744f43b8b81291,0.899735338448667,not_total_nonsense,False
3255,"<div style=""font-size:20px;""><p>A mile being surprised by a news article</p></div>",0,surprised,4,concrete_animate,far2,a mile,a mile being surprised by a news article,12,critical,html-keyboard-response,21,113423,0.0-4.0-0.5,anon_subject_22,6733d46d557efbcaf35e42fb,67351bf0df744f43b8b81291,0.899735338448667,total_nonsense,True
1256,"<div style=""font-size:20px;""><p>A girl writing a play</p></div>",1,write_play,2,concrete_animate,target,a girl,a girl writing a play,12,critical,html-keyboard-response,23,115683,0.0-4.0-0.6,anon_subject_22,6733d46d557efbcaf35e42fb,67351bf0df744f43b8b81291,0.899735338448667,not_total_nonsense,False
2139,"<div style=""font-size:20px;""><p>A man being a multiple of 5</p></div>",1,multiple,6,abstract_numeral,far1,a man,a man being a multiple of 5,12,critical,html-keyboard-response,25,118826,0.0-4.0-0.7,anon_subject_22,6733d46d557efbcaf35e42fb,67351bf0df744f43b8b81291,0.899735338448667,not_total_nonsense,False
3387,"<div style=""font-size:20px;""><p>Dividing 12 by a teenager</p></div>",0,dividing,10,abstract_numeral,far1,a teenager,dividing 12 by a teenager,12,critical,html-keyboard-response,27,123216,0.0-4.0-0.8,anon_subject_22,6733d46d557efbcaf35e42fb,67351bf0df744f43b8b81291,0.899735338448667,total_nonsense,True
1313,"<div style=""font-size:20px;""><p>A toddler being amused by a TV show</p></div>",1,amused,3,concrete_animate,target,a toddler,a toddler being amused by a TV show,12,critical,html-keyboard-response,29,125533,0.0-4.0-0.9,anon_subject_22,6733d46d557efbcaf35e42fb,67351bf0df744f43b8b81291,0.899735338448667,not_total_nonsense,False
1747,"<div style=""font-size:20px;""><p>A door feeling regretful</p></div>",0,regret,0,concrete_animate,near,a door,a door feeling regretful,12,critical,html-keyboard-response,31,128283,0.0-4.0-0.10,anon_subject_22,6733d46d557efbcaf35e42fb,67351bf0df744f43b8b81291,0.899735338448667,total_nonsense,True
1588,"<div style=""font-size:20px;""><p>An inch applying for a job</p></div>",0,apply_job,1,concrete_animate,far2,an inch,an inch applying for a job,12,critical,html-keyboard-response,33,130875,0.0-4.0-0.11,anon_subject_22,6733d46d557efbcaf35e42fb,67351bf0df744f43b8b81291,0.899735338448667,total_nonsense,True
29480,"<div style=""font-size:20px;""><p>The number 10 being a multiple of 5</p></div>",1,multiple,6,abstract_numeral,target,the number 10,the number 10 being a multiple of 5,5,critical,html-keyboard-response,7,126350,0.0-4.0-0.0,anon_subject_30,6733d46d557efbcaf35e42fb,67351bee44c7e624a6fbc428,0.3682167234653948,not_total_nonsense,False
6096,"<div style=""font-size:20px;""><p>Taking the square root of a pill</p></div>",0,square_root,9,abstract_numeral,far2,a pill,taking the square root of a pill,5,critical,html-keyboard-response,9,133455,0.0-4.0-0.1,anon_subject_30,6733d46d557efbcaf35e42fb,67351bee44c7e624a6fbc428,0.3682167234653948,total_nonsense,True
2266,"<div style=""font-size:20px;""><p>A kilogram writing a play</p></div>",0,write_play,2,concrete_animate,far2,a kilogram,a kilogram writing a play,5,critical,html-keyboard-response,11,136725,0.0-4.0-0.2,anon_subject_30,6733d46d557efbcaf35e42fb,67351bee44c7e624a6fbc428,0.3682167234653948,total_nonsense,True
3122,"<div style=""font-size:20px;""><p>A shirt being surprised by a news article</p></div>",0,surprised,4,concrete_animate,near,a shirt,a shirt being surprised by a news article,5,critical,html-keyboard-response,13,140860,0.0-4.0-0.3,anon_subject_30,6733d46d557efbcaf35e42fb,67351bee44c7e624a6fbc428,0.3682167234653948,total_nonsense,True
1966,"<div style=""font-size:20px;""><p>A week being entertained by a podcast</p></div>",1,entertained,5,concrete_animate,far2,a week,a week being entertained by a podcast,5,critical,html-keyboard-response,15,143829,0.0-4.0-0.4,anon_subject_30,6733d46d557efbcaf35e42fb,67351bee44c7e624a6fbc428,0.3682167234653948,not_total_nonsense,False
3638,"<div style=""font-size:20px;""><p>The number 12 being greater than 10</p></div>",1,greater_than,7,abstract_numeral,target,the number 12,the number 12 being greater than 10,5,critical,html-keyboard-response,17,148470,0.0-4.0-0.5,anon_subject_30,6733d46d557efbcaf35e42fb,67351bee44c7e624a6fbc428,0.3682167234653948,not_total_nonsense,False
2569,"<div style=""font-size:20px;""><p>Adding a boy to 79</p></div>",0,adding,11,abstract_numeral,far1,a boy,adding a boy to 79,5,critical,html-keyboard-response,19,152054,0.0-4.0-0.6,anon_subject_30,6733d46d557efbcaf35e42fb,67351bee44c7e624a6fbc428,0.3682167234653948,total_nonsense,True
2846,"<div style=""font-size:20px;""><p>Dividing 12 by a teenager</p></div>",0,dividing,10,abstract_numeral,far1,a teenager,dividing 12 by a teenager,5,critical,html-keyboard-response,21,155910,0.0-4.0-0.7,anon_subject_30,6733d46d557efbcaf35e42fb,67351bee44c7e624a6fbc428,0.3682167234653948,total_nonsense,True
3141,"<div style=""font-size:20px;""><p>The number 13 being a prime number</p></div>",1,is_prime,8,abstract_numeral,target,the number 13,the number 13 being a prime number,5,critical,html-keyboard-response,23,160054,0.0-4.0-0.8,anon_subject_30,6733d46d557efbcaf35e42fb,67351bee44c7e624a6fbc428,0.3682167234653948,not_total_nonsense,False
5861,"<div style=""font-size:20px;""><p>A door feeling regretful</p></div>",0,regret,0,concrete_animate,near,a door,a door feeling regretful,5,critical,html-keyboard-response,25,166926,0.0-4.0-0.9,anon_subject_30,6733d46d557efbcaf35e42fb,67351bee44c7e624a6fbc428,0.3682167234653948,total_nonsense,True
3324,"<div style=""font-size:20px;""><p>The number 16 being amused by a TV show</p></div>",0,amused,3,concrete_animate,far1,the number 16,the number 16 being amused by a TV show,5,critical,html-keyboard-response,27,171255,0.0-4.0-0.10,anon_subject_30,6733d46d557efbcaf35e42fb,67351bee44c7e624a6fbc428,0.3682167234653948,total_nonsense,True
1878,"<div style=""font-size:20px;""><p>A crumb applying for a job</p></div>",0,apply_job,1,concrete_animate,near,a crumb,a crumb applying for a job,5,critical,html-keyboard-response,29,174141,0.0-4.0-0.11,anon_subject_30,6733d46d557efbcaf35e42fb,67351bee44c7e624a6fbc428,0.3682167234653948,total_nonsense,True
3221,"<div style=""font-size:20px;""><p>The number 4 being surprised by a news article</p></div>",0,surprised,4,concrete_animate,far1,the number 4,the number 4 being surprised by a news article,1,critical,html-keyboard-response,7,42766,0.0-4.0-0.0,anon_subject_37,6733d46d557efbcaf35e42fb,67351108cbff628eeba2cbe4,0.6934517227971924,total_nonsense,True
1639,"<div style=""font-size:20px;""><p>An inch applying for a job</p></div>",0,apply_job,1,concrete_animate,far2,an inch,an inch applying for a job,1,critical,html-keyboard-response,9,45409,0.0-4.0-0.1,anon_subject_37,6733d46d557efbcaf35e42fb,67351108cbff628eeba2cbe4,0.6934517227971924,total_nonsense,True
3697,"<div style=""font-size:20px;""><p>A woman being greater than 10</p></div>",0,greater_than,7,abstract_numeral,far1,a woman,a woman being greater than 10,1,critical,html-keyboard-response,11,50110,0.0-4.0-0.2,anon_subject_37,6733d46d557efbcaf35e42fb,67351108cbff628eeba2cbe4,0.6934517227971924,total_nonsense,True
2252,"<div style=""font-size:20px;""><p>A rock writing a play</p></div>",0,write_play,2,concrete_animate,near,a rock,a rock writing a play,1,critical,html-keyboard-response,13,53365,0.0-4.0-0.3,anon_subject_37,6733d46d557efbcaf35e42fb,67351108cbff628eeba2cbe4,0.6934517227971924,total_nonsense,True
1668,"<div style=""font-size:20px;""><p>A boy being entertained by a podcast</p></div>",1,entertained,5,concrete_animate,target,a boy,a boy being entertained by a podcast,1,critical,html-keyboard-response,15,56036,0.0-4.0-0.4,anon_subject_37,6733d46d557efbcaf35e42fb,67351108cbff628eeba2cbe4,0.6934517227971924,not_total_nonsense,False
1536,"<div style=""font-size:20px;""><p>A toddler being amused by a TV show</p></div>",1,amused,3,concrete_animate,target,a toddler,a toddler being amused by a TV show,1,critical,html-keyboard-response,17,58575,0.0-4.0-0.5,anon_subject_37,6733d46d557efbcaf35e42fb,67351108cbff628eeba2cbe4,0.6934517227971924,not_total_nonsense,False
2810,"<div style=""font-size:20px;""><p>A liter feeling regretful</p></div>",0,regret,0,concrete_animate,far2,a liter,a liter feeling regretful,1,critical,html-keyboard-response,19,62388,0.0-4.0-0.6,anon_subject_37,6733d46d557efbcaf35e42fb,67351108cbff628eeba2cbe4,0.6934517227971924,total_nonsense,True
1585,"<div style=""font-size:20px;""><p>Adding a week to 79</p></div>",0,adding,11,abstract_numeral,near,a week,adding a week to 79,1,critical,html-keyboard-response,21,64977,0.0-4.0-0.7,anon_subject_37,6733d46d557efbcaf35e42fb,67351108cbff628eeba2cbe4,0.6934517227971924,total_nonsense,True
3557,"<div style=""font-size:20px;""><p>Taking the square root of a month</p></div>",0,square_root,9,abstract_numeral,near,a month,taking the square root of a month,1,critical,html-keyboard-response,23,69537,0.0-4.0-0.8,anon_subject_37,6733d46d557efbcaf35e42fb,67351108cbff628eeba2cbe4,0.6934517227971924,total_nonsense,True
1285,"<div style=""font-size:20px;""><p>Dividing 12 by a teenager</p></div>",0,dividing,10,abstract_numeral,far1,a teenager,dividing 12 by a teenager,1,critical,html-keyboard-response,25,71825,0.0-4.0-0.9,anon_subject_37,6733d46d557efbcaf35e42fb,67351108cbff628eeba2cbe4,0.6934517227971924,total_nonsense,True
2225,"<div style=""font-size:20px;""><p>The number 13 being a prime number</p></div>",1,is_prime,8,abstract_numeral,target,the number 13,the number 13 being a prime number,1,critical,html-keyboard-response,27,75054,0.0-4.0-0.10,anon_subject_37,6733d46d557efbcaf35e42fb,67351108cbff628eeba2cbe4,0.6934517227971924,not_total_nonsense,False
2067,"<div style=""font-size:20px;""><p>A door being a multiple of 5</p></div>",0,multiple,6,abstract_numeral,far2,a door,a door being a multiple of 5,1,critical,html-keyboard-response,29,78125,0.0-4.0-0.11,anon_subject_37,6733d46d557efbcaf35e42fb,67351108cbff628eeba2cbe4,0.6934517227971924,total_nonsense,True
6724,"<div style=""font-size:20px;""><p>An inch applying for a job</p></div>",0,apply_job,1,concrete_animate,far2,an inch,an inch applying for a job,12,critical,html-keyboard-response,27,116454,0.0-4.0-0.0,anon_subject_27,6733d46d557efbcaf35e42fb,673513baacd7af486d00d112,0.9318581175199856,total_nonsense,True
7879,"<div style=""font-size:20px;""><p>A boy being entertained by a podcast</p></div>",1,entertained,5,concrete_animate,target,a boy,a boy being entertained by a podcast,12,critical,html-keyboard-response,29,125344,0.0-4.0-0.1,anon_subject_27,6733d46d557efbcaf35e42fb,673513baacd7af486d00d112,0.9318581175199856,not_total_nonsense,False
1919,"<div style=""font-size:20px;""><p>A door feeling regretful</p></div>",0,regret,0,concrete_animate,near,a door,a door feeling regretful,12,critical,html-keyboard-response,31,128277,0.0-4.0-0.2,anon_subject_27,6733d46d557efbcaf35e42fb,673513baacd7af486d00d112,0.9318581175199856,total_nonsense,True
3356,"<div style=""font-size:20px;""><p>A toddler being amused by a TV show</p></div>",1,amused,3,concrete_animate,target,a toddler,a toddler being amused by a TV show,12,critical,html-keyboard-response,33,132650,0.0-4.0-0.3,anon_subject_27,6733d46d557efbcaf35e42fb,673513baacd7af486d00d112,0.9318581175199856,not_total_nonsense,False
6639,"<div style=""font-size:20px;""><p>A mile being surprised by a news article</p></div>",0,surprised,4,concrete_animate,far2,a mile,a mile being surprised by a news article,12,critical,html-keyboard-response,35,140306,0.0-4.0-0.4,anon_subject_27,6733d46d557efbcaf35e42fb,673513baacd7af486d00d112,0.9318581175199856,total_nonsense,True
8399,"<div style=""font-size:20px;""><p>A kilogram being a prime number</p></div>",0,is_prime,8,abstract_numeral,near,a kilogram,a kilogram being a prime number,12,critical,html-keyboard-response,37,149713,0.0-4.0-0.5,anon_subject_27,6733d46d557efbcaf35e42fb,673513baacd7af486d00d112,0.9318581175199856,total_nonsense,True
4302,"<div style=""font-size:20px;""><p>A man being a multiple of 5</p></div>",0,multiple,6,abstract_numeral,far1,a man,a man being a multiple of 5,12,critical,html-keyboard-response,39,155021,0.0-4.0-0.6,anon_subject_27,6733d46d557efbcaf35e42fb,673513baacd7af486d00d112,0.9318581175199856,total_nonsense,True
9783,"<div style=""font-size:20px;""><p>Taking the square root of a month</p></div>",1,square_root,9,abstract_numeral,near,a month,taking the square root of a month,12,critical,html-keyboard-response,41,165817,0.0-4.0-0.7,anon_subject_27,6733d46d557efbcaf35e42fb,673513baacd7af486d00d112,0.9318581175199856,not_total_nonsense,False
3154,"<div style=""font-size:20px;""><p>Dividing 12 by a teenager</p></div>",0,dividing,10,abstract_numeral,far1,a teenager,dividing 12 by a teenager,12,critical,html-keyboard-response,43,169983,0.0-4.0-0.8,anon_subject_27,6733d46d557efbcaf35e42fb,673513baacd7af486d00d112,0.9318581175199856,total_nonsense,True
2397,"<div style=""font-size:20px;""><p>A woman being greater than 10</p></div>",0,greater_than,7,abstract_numeral,far1,a woman,a woman being greater than 10,12,critical,html-keyboard-response,45,173398,0.0-4.0-0.9,anon_subject_27,6733d46d557efbcaf35e42fb,673513baacd7af486d00d112,0.9318581175199856,total_nonsense,True
2009,"<div style=""font-size:20px;""><p>A girl writing a play</p></div>",1,write_play,2,concrete_animate,target,a girl,a girl writing a play,12,critical,html-keyboard-response,47,176418,0.0-4.0-0.10,anon_subject_27,6733d46d557efbcaf35e42fb,673513baacd7af486d00d112,0.9318581175199856,not_total_nonsense,False
2219,"<div style=""font-size:20px;""><p>Adding a wall to 79</p></div>",0,adding,11,abstract_numeral,far2,a wall,adding a wall to 79,12,critical,html-keyboard-response,49,179655,0.0-4.0-0.11,anon_subject_27,6733d46d557efbcaf35e42fb,673513baacd7af486d00d112,0.9318581175199856,total_nonsense,True
2169,"<div style=""font-size:20px;""><p>Adding a boy to 79</p></div>",0,adding,11,abstract_numeral,far1,a boy,adding a boy to 79,5,critical,html-keyboard-response,11,74884,0.0-4.0-0.0,anon_subject_8,6733d46d557efbcaf35e42fb,67351be10e856ce0fde2a99d,0.7815472003126247,total_nonsense,True
4226,"<div style=""font-size:20px;""><p>The number 10 being a multiple of 5</p></div>",1,multiple,6,abstract_numeral,target,the number 10,the number 10 being a multiple of 5,5,critical,html-keyboard-response,13,80112,0.0-4.0-0.1,anon_subject_8,6733d46d557efbcaf35e42fb,67351be10e856ce0fde2a99d,0.7815472003126247,not_total_nonsense,False
2385,"<div style=""font-size:20px;""><p>A shirt being surprised by a news article</p></div>",0,surprised,4,concrete_animate,near,a shirt,a shirt being surprised by a news article,5,critical,html-keyboard-response,15,83498,0.0-4.0-0.2,anon_subject_8,6733d46d557efbcaf35e42fb,67351be10e856ce0fde2a99d,0.7815472003126247,total_nonsense,True
1659,"<div style=""font-size:20px;""><p>A week being entertained by a podcast</p></div>",0,entertained,5,concrete_animate,far2,a week,a week being entertained by a podcast,5,critical,html-keyboard-response,17,86158,0.0-4.0-0.3,anon_subject_8,6733d46d557efbcaf35e42fb,67351be10e856ce0fde2a99d,0.7815472003126247,total_nonsense,True
1605,"<div style=""font-size:20px;""><p>A door feeling regretful</p></div>",0,regret,0,concrete_animate,near,a door,a door feeling regretful,5,critical,html-keyboard-response,19,88764,0.0-4.0-0.4,anon_subject_8,6733d46d557efbcaf35e42fb,67351be10e856ce0fde2a99d,0.7815472003126247,total_nonsense,True
2799,"<div style=""font-size:20px;""><p>Dividing 12 by a teenager</p></div>",0,dividing,10,abstract_numeral,far1,a teenager,dividing 12 by a teenager,5,critical,html-keyboard-response,21,92566,0.0-4.0-0.5,anon_subject_8,6733d46d557efbcaf35e42fb,67351be10e856ce0fde2a99d,0.7815472003126247,total_nonsense,True
1786,"<div style=""font-size:20px;""><p>The number 12 being greater than 10</p></div>",1,greater_than,7,abstract_numeral,target,the number 12,the number 12 being greater than 10,5,critical,html-keyboard-response,23,95354,0.0-4.0-0.6,anon_subject_8,6733d46d557efbcaf35e42fb,67351be10e856ce0fde2a99d,0.7815472003126247,not_total_nonsense,False
1403,"<div style=""font-size:20px;""><p>Taking the square root of a pill</p></div>",0,square_root,9,abstract_numeral,far2,a pill,taking the square root of a pill,5,critical,html-keyboard-response,25,97758,0.0-4.0-0.7,anon_subject_8,6733d46d557efbcaf35e42fb,67351be10e856ce0fde2a99d,0.7815472003126247,total_nonsense,True
3313,"<div style=""font-size:20px;""><p>The number 13 being a prime number</p></div>",1,is_prime,8,abstract_numeral,target,the number 13,the number 13 being a prime number,5,critical,html-keyboard-response,27,102071,0.0-4.0-0.8,anon_subject_8,6733d46d557efbcaf35e42fb,67351be10e856ce0fde2a99d,0.7815472003126247,not_total_nonsense,False
1755,"<div style=""font-size:20px;""><p>The number 16 being amused by a TV show</p></div>",0,amused,3,concrete_animate,far1,the number 16,the number 16 being amused by a TV show,5,critical,html-keyboard-response,29,104827,0.0-4.0-0.9,anon_subject_8,6733d46d557efbcaf35e42fb,67351be10e856ce0fde2a99d,0.7815472003126247,total_nonsense,True
